Observer;Condition;SessionID;Block;Trial;COA;Color0;Color1;Color2;Color3;Target;Which;Match;FlipComplimentary;Response;RT;Correct;OnsetDelay
AAF1997w;experiment;2017-04-24-14-40-01;1,0;1,0;-100;0,0;2,0;1,0;3,0;column;1,0;True;False;False;0,961999893188;False;0,710999965668
AAF1997w;experiment;2017-04-24-14-40-01;1,0;2,0;-100;1,0;3,0;0,0;2,0;column;0,0;False;False;False;0,822999954224;True;0,771000146866
AAF1997w;experiment;2017-04-24-14-40-01;1,0;3,0;-100;1,0;0,0;3,0;2,0;row;1,0;False;True;False;0,950000047684;True;1,32299995422
AAF1997w;experiment;2017-04-24-14-40-01;1,0;4,0;-100;3,0;1,0;0,0;2,0;column;0,0;True;True;True;0,850000143051;True;0,888000011444
AAF1997w;experiment;2017-04-24-14-40-01;1,0;5,0;-100;2,0;0,0;3,0;1,0;row;1,0;False;True;False;0,815999984741;True;0,694999933243
AAF1997w;experiment;2017-04-24-14-40-01;1,0;6,0;-100;0,0;2,0;1,0;3,0;row;1,0;False;True;False;0,751000165939;True;1,46199989319
AAF1997w;experiment;2017-04-24-14-40-01;1,0;7,0;-100;1,0;3,0;0,0;2,0;column;1,0;False;True;False;0,549999952316;True;0,739000082016
AAF1997w;experiment;2017-04-24-14-40-01;1,0;8,0;-100;0,0;3,0;1,0;2,0;row;1,0;True;True;True;0,648999929428;True;0,928999900818
AAF1997w;experiment;2017-04-24-14-40-01;1,0;9,0;-100;1,0;3,0;2,0;0,0;column;1,0;True;True;False;0,749000072479;False;0,763000011444
AAF1997w;experiment;2017-04-24-14-40-01;1,0;10,0;-100;0,0;3,0;1,0;2,0;column;0,0;False;False;False;1,01699995995;True;1,16499996185
AAF1997w;experiment;2017-04-24-14-40-01;1,0;11,0;-100;0,0;2,0;3,0;1,0;column;1,0;True;True;True;1,21599984169;True;0,969000101089
AAF1997w;experiment;2017-04-24-14-40-01;1,0;12,0;-100;0,0;2,0;3,0;1,0;column;1,0;False;False;False;0,950000047684;True;0,858000040054
AAF1997w;experiment;2017-04-24-14-40-01;1,0;13,0;-100;3,0;2,0;1,0;0,0;row;1,0;False;True;True;1,08399987221;False;0,731000185013
AAF1997w;experiment;2017-04-24-14-40-01;1,0;14,0;-100;1,0;2,0;0,0;3,0;row;1,0;False;False;False;0,850000143051;True;0,794999837875
AAF1997w;experiment;2017-04-24-14-40-01;1,0;15,0;-100;0,0;1,0;3,0;2,0;column;1,0;False;False;False;0,950000047684;True;0,763000011444
AAF1997w;experiment;2017-04-24-14-40-01;1,0;16,0;-100;3,0;0,0;2,0;1,0;column;0,0;False;True;False;0,789000034332;True;1,06100010872
AAF1997w;experiment;2017-04-24-14-40-01;1,0;17,0;-100;2,0;0,0;1,0;3,0;row;0,0;False;False;False;0,949000120163;True;1,36899995804
AAF1997w;experiment;2017-04-24-14-40-01;1,0;18,0;-100;0,0;3,0;2,0;1,0;row;1,0;False;False;False;0,816999912262;True;0,664999961853
AAF1997w;experiment;2017-04-24-14-40-01;1,0;19,0;-100;0,0;2,0;1,0;3,0;column;1,0;False;False;False;1,15700006485;True;0,832000017166
AAF1997w;experiment;2017-04-24-14-40-01;1,0;20,0;-100;0,0;3,0;2,0;1,0;row;1,0;True;False;True;0,849999904633;True;1,44499993324
AAF1997w;experiment;2017-04-24-14-40-01;1,0;21,0;-100;1,0;2,0;3,0;0,0;column;1,0;True;False;False;0,915999889374;False;1,10400009155
AAF1997w;experiment;2017-04-24-14-40-01;1,0;22,0;-100;1,0;0,0;2,0;3,0;row;0,0;True;False;True;1,01600003242;True;1,26999998093
AAF1997w;experiment;2017-04-24-14-40-01;1,0;23,0;-100;1,0;3,0;0,0;2,0;row;1,0;True;True;True;0,782999992371;True;1,09500002861
AAF1997w;experiment;2017-04-24-14-40-01;1,0;24,0;-100;3,0;2,0;1,0;0,0;column;1,0;False;True;False;0,849999904633;True;0,827999830246
AAF1997w;experiment;2017-04-24-14-40-01;1,0;25,0;-100;1,0;2,0;3,0;0,0;column;0,0;False;False;False;0,749000072479;True;1,3029999733
AAF1997w;experiment;2017-04-24-14-40-01;1,0;26,0;-100;3,0;2,0;1,0;0,0;row;1,0;True;True;True;0,75;True;0,986000061035
AAF1997w;experiment;2017-04-24-14-40-01;1,0;27,0;-100;2,0;3,0;1,0;0,0;row;0,0;False;True;False;0,815999984741;True;0,963999986649
AAF1997w;experiment;2017-04-24-14-40-01;1,0;28,0;-100;1,0;3,0;0,0;2,0;row;0,0;False;True;False;0,651000022888;True;1,46300005913
AAF1997w;experiment;2017-04-24-14-40-01;1,0;29,0;-100;0,0;1,0;2,0;3,0;row;1,0;True;False;False;0,81500005722;False;0,898999929428
AAF1997w;experiment;2017-04-24-14-40-01;1,0;30,0;-100;0,0;2,0;3,0;1,0;column;0,0;True;True;True;0,717000007629;True;0,893000125885
AAF1997w;experiment;2017-04-24-14-40-01;1,0;31,0;-100;1,0;2,0;0,0;3,0;column;1,0;False;True;True;1,11599993706;False;0,865999937057
AAF1997w;experiment;2017-04-24-14-40-01;1,0;32,0;-100;3,0;2,0;1,0;0,0;column;1,0;True;True;False;0,950000047684;False;0,865000009537
AAF1997w;experiment;2017-04-24-14-40-01;1,0;33,0;-100;2,0;0,0;1,0;3,0;column;1,0;True;False;True;0,948999881744;True;0,56299996376
AAF1997w;experiment;2017-04-24-14-40-01;1,0;34,0;-100;2,0;0,0;3,0;1,0;column;1,0;True;True;True;1,01499986649;True;0,530999898911
AAF1997w;experiment;2017-04-24-14-40-01;1,0;35,0;-100;0,0;1,0;3,0;2,0;row;0,0;False;True;False;1,08399987221;True;1,32800006866
AAF1997w;experiment;2017-04-24-14-40-01;1,0;36,0;-100;0,0;1,0;2,0;3,0;column;0,0;False;True;True;0,849999904633;False;1,32400012016
AAF1997w;experiment;2017-04-24-14-40-01;1,0;37,0;-100;2,0;3,0;0,0;1,0;column;1,0;True;False;True;1,31700015068;True;0,936999797821
AAF1997w;experiment;2017-04-24-14-40-01;1,0;38,0;-100;3,0;0,0;1,0;2,0;column;1,0;True;True;True;0,983999967575;True;1,03700017929
AAF1997w;experiment;2017-04-24-14-40-01;1,0;39,0;-100;2,0;3,0;1,0;0,0;row;1,0;True;True;True;0,682999849319;True;0,93499994278
AAF1997w;experiment;2017-04-24-14-40-01;1,0;40,0;-100;3,0;0,0;2,0;1,0;row;1,0;True;False;True;0,75;True;1,06100010872
AAF1997w;experiment;2017-04-24-14-40-01;1,0;41,0;-100;1,0;2,0;0,0;3,0;row;0,0;False;True;False;0,75;True;0,596999883652
AAF1997w;experiment;2017-04-24-14-40-01;1,0;42,0;-100;0,0;3,0;2,0;1,0;column;1,0;True;False;True;0,884000062943;True;0,993999958038
AAF1997w;experiment;2017-04-24-14-40-01;1,0;43,0;-100;3,0;1,0;2,0;0,0;row;0,0;False;True;False;0,71599984169;True;1,32699990273
AAF1997w;experiment;2017-04-24-14-40-01;1,0;44,0;-100;1,0;0,0;3,0;2,0;column;1,0;False;False;False;0,749000072479;True;1,1210000515
AAF1997w;experiment;2017-04-24-14-40-01;1,0;45,0;-100;1,0;3,0;2,0;0,0;row;1,0;True;False;True;0,816999912262;True;0,569999933243
AAF1997w;experiment;2017-04-24-14-40-01;1,0;46,0;-100;2,0;1,0;0,0;3,0;row;0,0;True;True;False;0,956000089645;False;1,35900020599
AAF1997w;experiment;2017-04-24-14-40-01;1,0;47,0;-100;2,0;0,0;1,0;3,0;row;1,0;False;True;True;0,983000040054;False;1,2990000248
AAF1997w;experiment;2017-04-24-14-40-01;1,0;48,0;-100;2,0;1,0;3,0;0,0;column;0,0;True;True;True;1,18400001526;True;0,954999923706
AAF1997w;experiment;2017-04-24-14-40-01;2,0;1,0;100;1,0;0,0;2,0;3,0;row;0,0;False;False;False;1,06599998474;True;1,367000103
AAF1997w;experiment;2017-04-24-14-40-01;2,0;2,0;100;3,0;1,0;2,0;0,0;column;0,0;True;True;True;0,740000009537;True;0,670000076294
AAF1997w;experiment;2017-04-24-14-40-01;2,0;3,0;100;0,0;3,0;1,0;2,0;column;0,0;False;True;False;0,93700003624;True;1,30499982834
AAF1997w;experiment;2017-04-24-14-40-01;2,0;4,0;100;3,0;2,0;0,0;1,0;column;0,0;True;False;True;0,832999944687;True;0,820999860764
AAF1997w;experiment;2017-04-24-14-40-01;2,0;5,0;100;0,0;3,0;1,0;2,0;row;0,0;False;True;False;0,733999967575;True;1,39600014687
AAF1997w;experiment;2017-04-24-14-40-01;2,0;6,0;100;0,0;1,0;2,0;3,0;row;0,0;True;True;False;0,933000087738;False;0,969000101089
AAF1997w;experiment;2017-04-24-14-40-01;2,0;7,0;100;2,0;0,0;1,0;3,0;column;1,0;True;True;True;1,33299994469;True;1,46300005913
AAF1997w;experiment;2017-04-24-14-40-01;2,0;8,0;100;3,0;1,0;0,0;2,0;row;0,0;True;False;True;1,46700000763;True;0,766000032425
AAF1997w;experiment;2017-04-24-14-40-01;2,0;9,0;100;3,0;1,0;0,0;2,0;row;1,0;False;False;False;0,832000017166;True;1,46599984169
AAF1997w;experiment;2017-04-24-14-40-01;2,0;10,0;100;2,0;0,0;3,0;1,0;column;1,0;False;False;False;1,36599993706;True;0,794000148773
AAF1997w;experiment;2017-04-24-14-40-01;2,0;11,0;100;3,0;2,0;1,0;0,0;row;0,0;True;True;True;1,06599998474;True;1,20499992371
AAF1997w;experiment;2017-04-24-14-40-01;2,0;12,0;100;1,0;0,0;2,0;3,0;column;1,0;False;True;False;1,23300004005;True;0,894999980927
AAF1997w;experiment;2017-04-24-14-40-01;2,0;13,0;100;0,0;3,0;1,0;2,0;column;1,0;False;True;False;0,799999952316;True;1,01300001144
AAF1997w;experiment;2017-04-24-14-40-01;2,0;14,0;100;3,0;0,0;1,0;2,0;row;0,0;True;False;True;0,832999944687;True;1,07299995422
AAF1997w;experiment;2017-04-24-14-40-01;2,0;15,0;100;2,0;0,0;3,0;1,0;row;1,0;False;True;False;0,766000032425;True;1,17100000381
AAF1997w;experiment;2017-04-24-14-40-01;2,0;16,0;100;1,0;0,0;3,0;2,0;column;0,0;False;True;False;0,733999967575;True;1,49499988556
AAF1997w;experiment;2017-04-24-14-40-01;2,0;17,0;100;1,0;0,0;3,0;2,0;row;0,0;True;False;True;0,766999959946;True;0,961999893188
AAF1997w;experiment;2017-04-24-14-40-01;2,0;18,0;100;2,0;3,0;1,0;0,0;column;1,0;True;False;False;1,03299999237;False;0,569000005722
AAF1997w;experiment;2017-04-24-14-40-01;2,0;19,0;100;2,0;1,0;0,0;3,0;row;1,0;True;False;True;1,29800009727;True;1,37399983406
AAF1997w;experiment;2017-04-24-14-40-01;2,0;20,0;100;3,0;0,0;1,0;2,0;row;0,0;False;True;False;1,10100007057;True;0,606000185013
AAF1997w;experiment;2017-04-24-14-40-01;2,0;21,0;100;1,0;3,0;2,0;0,0;row;1,0;False;True;False;0,899999856949;True;0,735000133514
AAF1997w;experiment;2017-04-24-14-40-01;2,0;22,0;100;0,0;2,0;3,0;1,0;row;1,0;True;True;True;0,965000152588;True;1,43799996376
AAF1997w;experiment;2017-04-24-14-40-01;2,0;23,0;100;3,0;0,0;1,0;2,0;column;0,0;True;False;True;0,966000080109;True;1,46600008011
AAF1997w;experiment;2017-04-24-14-40-01;2,0;24,0;100;0,0;2,0;1,0;3,0;row;1,0;False;True;False;1,23300004005;True;0,663000106812
AAF1997w;experiment;2017-04-24-14-40-01;2,0;25,0;100;0,0;1,0;3,0;2,0;column;1,0;False;True;False;0,900000095367;True;0,821000099182
AAF1997w;experiment;2017-04-24-14-40-01;2,0;26,0;100;1,0;2,0;0,0;3,0;column;1,0;False;False;False;0,799999952316;True;0,657999992371
AAF1997w;experiment;2017-04-24-14-40-01;2,0;27,0;100;2,0;0,0;3,0;1,0;row;0,0;True;True;True;0,932999849319;True;1,50300002098
AAF1997w;experiment;2017-04-24-14-40-01;2,0;28,0;100;1,0;2,0;0,0;3,0;row;1,0;True;False;True;1,29999995232;True;1,45700001717
AAF1997w;experiment;2017-04-24-14-40-01;2,0;29,0;100;3,0;2,0;1,0;0,0;column;0,0;False;True;False;0,801000118256;True;0,995000123978
AAF1997w;experiment;2017-04-24-14-40-01;2,0;30,0;100;2,0;0,0;3,0;1,0;column;1,0;True;True;True;1,03200006485;True;1,45600008965
AAF1997w;experiment;2017-04-24-14-40-01;2,0;31,0;100;1,0;3,0;0,0;2,0;column;1,0;False;False;False;1,40000009537;True;1,43499994278
AAF1997w;experiment;2017-04-24-14-40-01;2,0;32,0;100;1,0;2,0;3,0;0,0;row;1,0;True;True;True;1,53299999237;True;1,47199988365
AAF1997w;experiment;2017-04-24-14-40-01;2,0;33,0;100;3,0;1,0;2,0;0,0;row;0,0;False;True;False;1,132999897;True;0,535000085831
AAF1997w;experiment;2017-04-24-14-40-01;2,0;34,0;100;1,0;3,0;0,0;2,0;row;0,0;False;True;False;1,03299999237;True;1,29699993134
AAF1997w;experiment;2017-04-24-14-40-01;2,0;35,0;100;2,0;3,0;1,0;0,0;row;0,0;False;True;False;0,967000007629;True;0,628999948502
AAF1997w;experiment;2017-04-24-14-40-01;2,0;36,0;100;1,0;0,0;3,0;2,0;column;0,0;True;True;True;1,09999990463;True;1,23599982262
AAF1997w;experiment;2017-04-24-14-40-01;2,0;37,0;100;2,0;1,0;3,0;0,0;column;1,0;True;False;False;1,0;False;1,02900004387
AAF1997w;experiment;2017-04-24-14-40-01;2,0;38,0;100;1,0;3,0;0,0;2,0;row;1,0;True;False;True;1,13399982452;True;0,769999980927
AAF1997w;experiment;2017-04-24-14-40-01;2,0;39,0;100;0,0;3,0;1,0;2,0;row;1,0;False;True;False;0,966000080109;True;1,30400013924
AAF1997w;experiment;2017-04-24-14-40-01;2,0;40,0;100;0,0;1,0;3,0;2,0;row;0,0;True;True;True;1,132999897;True;1,43000006676
AAF1997w;experiment;2017-04-24-14-40-01;2,0;41,0;100;1,0;2,0;0,0;3,0;column;0,0;False;True;False;1,09999990463;True;0,769000053406
AAF1997w;experiment;2017-04-24-14-40-01;2,0;42,0;100;1,0;2,0;0,0;3,0;column;1,0;True;False;False;1,33100008965;False;0,930000066757
AAF1997w;experiment;2017-04-24-14-40-01;2,0;43,0;100;3,0;2,0;1,0;0,0;row;0,0;False;True;False;1,0;True;1,03099989891
AAF1997w;experiment;2017-04-24-14-40-01;2,0;44,0;100;2,0;0,0;1,0;3,0;column;1,0;False;True;False;1,16599988937;True;1,22799992561
AAF1997w;experiment;2017-04-24-14-40-01;2,0;45,0;100;2,0;1,0;3,0;0,0;row;0,0;True;True;True;0,866999864578;True;0,52999997139
AAF1997w;experiment;2017-04-24-14-40-01;2,0;46,0;100;2,0;1,0;0,0;3,0;column;1,0;True;True;True;1,09899997711;True;1,1289999485
AAF1997w;experiment;2017-04-24-14-40-01;2,0;47,0;100;0,0;2,0;1,0;3,0;column;0,0;False;False;False;0,900000095367;True;0,97000002861
AAF1997w;experiment;2017-04-24-14-40-01;2,0;48,0;100;1,0;3,0;2,0;0,0;column;0,0;False;True;False;1,13300013542;True;1,09599995613
AAF1997w;experiment;2017-04-24-14-40-01;3,0;1,0;1000;2,0;0,0;1,0;3,0;column;1,0;True;False;False;1,09999990463;False;0,528000116348
AAF1997w;experiment;2017-04-24-14-40-01;3,0;2,0;1000;0,0;3,0;1,0;2,0;column;1,0;True;False;True;1,43300008774;True;0,639999866486
AAF1997w;experiment;2017-04-24-14-40-01;3,0;3,0;1000;3,0;0,0;1,0;2,0;row;0,0;False;False;False;1,16700005531;True;0,901999950409
AAF1997w;experiment;2017-04-24-14-40-01;3,0;4,0;1000;2,0;0,0;3,0;1,0;row;0,0;False;False;False;0,998999834061;True;0,735000133514
AAF1997w;experiment;2017-04-24-14-40-01;3,0;5,0;1000;3,0;1,0;2,0;0,0;column;0,0;False;True;False;1,0;True;1,47000002861
AAF1997w;experiment;2017-04-24-14-40-01;3,0;6,0;1000;1,0;3,0;0,0;2,0;column;1,0;True;True;True;1,16700005531;True;1,09800004959
AAF1997w;experiment;2017-04-24-14-40-01;3,0;7,0;1000;2,0;0,0;3,0;1,0;row;1,0;True;False;True;1,33299994469;True;1,26800012589
AAF1997w;experiment;2017-04-24-14-40-01;3,0;8,0;1000;1,0;0,0;2,0;3,0;column;0,0;False;True;False;1,26699995995;True;0,991000175476
AAF1997w;experiment;2017-04-24-14-40-01;3,0;9,0;1000;2,0;0,0;1,0;3,0;column;0,0;True;False;False;1,20000004768;False;0,99799990654
AAF1997w;experiment;2017-04-24-14-40-01;3,0;10,0;1000;2,0;3,0;0,0;1,0;row;1,0;False;True;True;1,03299999237;False;1,13000011444
AAF1997w;experiment;2017-04-24-14-40-01;3,0;11,0;1000;3,0;0,0;1,0;2,0;column;0,0;False;False;False;1,13199996948;True;1,13400006294
AAF1997w;experiment;2017-04-24-14-40-01;3,0;12,0;1000;3,0;2,0;0,0;1,0;row;1,0;False;False;True;1,03299999237;False;1,03399991989
AAF1997w;experiment;2017-04-24-14-40-01;3,0;13,0;1000;1,0;3,0;2,0;0,0;row;1,0;False;True;False;1,60000014305;True;1,13300013542
AAF1997w;experiment;2017-04-24-14-40-01;3,0;14,0;1000;1,0;2,0;3,0;0,0;row;1,0;False;False;False;1,1740000248;True;0,96799993515
AAF1997w;experiment;2017-04-24-14-40-01;3,0;15,0;1000;3,0;2,0;0,0;1,0;row;0,0;False;False;False;1,03299999237;True;0,794999837875
AAF1997w;experiment;2017-04-24-14-40-01;3,0;16,0;1000;2,0;1,0;0,0;3,0;row;1,0;False;False;False;1,60000014305;True;0,535000085831
AAF1997w;experiment;2017-04-24-14-40-01;3,0;17,0;1000;3,0;1,0;2,0;0,0;column;0,0;True;True;True;1,06699991226;True;0,503000020981
AAF1997w;experiment;2017-04-24-14-40-01;3,0;18,0;1000;0,0;3,0;2,0;1,0;row;0,0;False;False;False;1,43299984932;True;1,03699994087
AAF1997w;experiment;2017-04-24-14-40-01;3,0;19,0;1000;1,0;3,0;2,0;0,0;column;0,0;True;False;True;1,20000004768;True;1,47000002861
AAF1997w;experiment;2017-04-24-14-40-01;3,0;20,0;1000;0,0;3,0;1,0;2,0;row;1,0;False;False;False;1,26600003242;True;0,836999893188
AAF1997w;experiment;2017-04-24-14-40-01;3,0;21,0;1000;0,0;3,0;1,0;2,0;row;0,0;True;True;True;1,16700005531;True;0,567000150681
AAF1997w;experiment;2017-04-24-14-40-01;3,0;22,0;1000;1,0;0,0;3,0;2,0;column;0,0;True;False;False;1,29999995232;False;1,02800011635
AAF1997w;experiment;2017-04-24-14-40-01;3,0;23,0;1000;2,0;0,0;3,0;1,0;row;1,0;False;False;False;1,43200016022;True;1,02800011635
AAF1997w;experiment;2017-04-24-14-40-01;3,0;24,0;1000;0,0;1,0;2,0;3,0;row;0,0;True;True;True;1,29899978638;True;1,03699994087
AAF1997w;experiment;2017-04-24-14-40-01;3,0;25,0;1000;2,0;3,0;0,0;1,0;column;0,0;False;False;False;1,03399991989;True;0,996000051498
AAF1997w;experiment;2017-04-24-14-40-01;3,0;26,0;1000;2,0;1,0;0,0;3,0;column;0,0;True;False;True;1,56699991226;True;1,47000002861
AAF1997w;experiment;2017-04-24-14-40-01;3,0;27,0;1000;2,0;1,0;0,0;3,0;row;1,0;True;False;True;1,26600003242;True;1,40299987793
AAF1997w;experiment;2017-04-24-14-40-01;3,0;28,0;1000;2,0;0,0;3,0;1,0;column;1,0;True;False;False;1,23399996758;False;0,928999900818
AAF1997w;experiment;2017-04-24-14-40-01;3,0;29,0;1000;2,0;3,0;0,0;1,0;row;0,0;False;True;False;1,43299984932;True;0,832999944687
AAF1997w;experiment;2017-04-24-14-40-01;3,0;30,0;1000;1,0;3,0;2,0;0,0;row;0,0;True;False;True;0,832000017166;True;1,33100008965
AAF1997w;experiment;2017-04-24-14-40-01;3,0;31,0;1000;0,0;1,0;3,0;2,0;column;1,0;True;False;False;1,33299994469;False;1,03499984741
AAF1997w;experiment;2017-04-24-14-40-01;3,0;32,0;1000;2,0;0,0;1,0;3,0;row;0,0;True;True;True;1,06700015068;True;0,52999997139
AAF1997w;experiment;2017-04-24-14-40-01;3,0;33,0;1000;0,0;3,0;1,0;2,0;column;0,0;True;True;True;1,09999990463;True;0,694000005722
AAF1997w;experiment;2017-04-24-14-40-01;3,0;34,0;1000;0,0;1,0;3,0;2,0;row;1,0;True;True;False;1,46600008011;False;1,23699998856
AAF1997w;experiment;2017-04-24-14-40-01;3,0;35,0;1000;1,0;2,0;3,0;0,0;column;0,0;False;True;False;1,56599998474;True;0,763000011444
AAF1997w;experiment;2017-04-24-14-40-01;3,0;36,0;1000;3,0;1,0;2,0;0,0;column;1,0;True;True;True;1,03399991989;True;0,97000002861
AAF1997w;experiment;2017-04-24-14-40-01;3,0;37,0;1000;2,0;3,0;1,0;0,0;row;1,0;True;True;False;1,36599993706;False;0,804000139236
AAF1997w;experiment;2017-04-24-14-40-01;3,0;38,0;1000;0,0;3,0;1,0;2,0;column;1,0;False;True;False;1,43099999428;True;0,768000125885
AAF1997w;experiment;2017-04-24-14-40-01;3,0;39,0;1000;1,0;3,0;0,0;2,0;row;0,0;True;True;True;1,71600008011;True;1,09400010109
AAF1997w;experiment;2017-04-24-14-40-01;3,0;40,0;1000;3,0;2,0;0,0;1,0;column;1,0;False;True;False;1,57800006866;True;0,828000068665
AAF1997w;experiment;2017-04-24-14-40-01;3,0;41,0;1000;2,0;3,0;1,0;0,0;row;1,0;False;True;False;1,49900007248;True;1,40299987793
AAF1997w;experiment;2017-04-24-14-40-01;3,0;42,0;1000;1,0;0,0;3,0;2,0;row;1,0;False;False;False;1,23300004005;True;1,46300005913
AAF1997w;experiment;2017-04-24-14-40-01;3,0;43,0;1000;3,0;1,0;2,0;0,0;column;1,0;False;True;True;1,29999995232;False;1,36800003052
AAF1997w;experiment;2017-04-24-14-40-01;3,0;44,0;1000;3,0;0,0;2,0;1,0;column;0,0;False;True;False;1,16700005531;True;1,26800012589
AAF1997w;experiment;2017-04-24-14-40-01;3,0;45,0;1000;3,0;2,0;0,0;1,0;column;1,0;True;True;True;0,999000072479;True;1,40300011635
AAF1997w;experiment;2017-04-24-14-40-01;3,0;46,0;1000;1,0;3,0;0,0;2,0;column;1,0;False;False;False;1,33399987221;True;0,59099984169
AAF1997w;experiment;2017-04-24-14-40-01;3,0;47,0;1000;2,0;0,0;3,0;1,0;row;0,0;True;False;False;1,5;False;1,15900015831
AAF1997w;experiment;2017-04-24-14-40-01;3,0;48,0;1000;2,0;1,0;0,0;3,0;column;1,0;False;False;False;2,03400015831;True;1,07000017166
AAF1997w;experiment;2017-04-24-14-40-01;4,0;1,0;100;2,0;3,0;0,0;1,0;column;0,0;True;False;True;1,2990000248;True;0,871000051498
AAF1997w;experiment;2017-04-24-14-40-01;4,0;2,0;100;2,0;0,0;3,0;1,0;column;0,0;False;True;False;1,16699981689;True;1,22900009155
AAF1997w;experiment;2017-04-24-14-40-01;4,0;3,0;100;3,0;1,0;0,0;2,0;row;0,0;False;False;False;1,20000004768;True;0,904000043869
AAF1997w;experiment;2017-04-24-14-40-01;4,0;4,0;100;3,0;1,0;0,0;2,0;column;0,0;False;False;False;1,43299984932;True;1,06200003624
AAF1997w;experiment;2017-04-24-14-40-01;4,0;5,0;100;1,0;0,0;2,0;3,0;column;0,0;False;False;False;1,43300008774;True;0,865999937057
AAF1997w;experiment;2017-04-24-14-40-01;4,0;6,0;100;3,0;2,0;1,0;0,0;column;1,0;True;False;True;1,26699995995;True;0,696000099182
AAF1997w;experiment;2017-04-24-14-40-01;4,0;7,0;100;3,0;0,0;2,0;1,0;row;1,0;True;True;True;1,26699995995;True;1,36100006104
AAF1997w;experiment;2017-04-24-14-40-01;4,0;8,0;100;2,0;3,0;0,0;1,0;row;0,0;False;True;False;0,99799990654;True;0,574000120163
AAF1997w;experiment;2017-04-24-14-40-01;4,0;9,0;100;3,0;1,0;2,0;0,0;column;1,0;True;True;True;1,10000014305;True;1,32999992371
AAF1997w;experiment;2017-04-24-14-40-01;4,0;10,0;100;0,0;3,0;1,0;2,0;column;0,0;True;False;True;0,832000017166;True;0,628000020981
AAF1997w;experiment;2017-04-24-14-40-01;4,0;11,0;100;2,0;1,0;3,0;0,0;column;1,0;False;True;False;0,799999952316;True;0,998999834061
AAF1997w;experiment;2017-04-24-14-40-01;4,0;12,0;100;1,0;3,0;2,0;0,0;column;1,0;False;False;False;1,23200011253;True;1,36299991608
AAF1997w;experiment;2017-04-24-14-40-01;4,0;13,0;100;1,0;2,0;0,0;3,0;column;0,0;True;True;True;0,900000095367;True;1,13199996948
AAF1997w;experiment;2017-04-24-14-40-01;4,0;14,0;100;3,0;1,0;0,0;2,0;column;1,0;False;False;False;0,867000102997;True;1,49399995804
AAF1997w;experiment;2017-04-24-14-40-01;4,0;15,0;100;2,0;1,0;0,0;3,0;column;1,0;False;False;False;0,96599984169;True;1,03100013733
AAF1997w;experiment;2017-04-24-14-40-01;4,0;16,0;100;0,0;1,0;3,0;2,0;row;1,0;True;False;True;1,16600012779;True;0,829999923706
AAF1997w;experiment;2017-04-24-14-40-01;4,0;17,0;100;3,0;1,0;2,0;0,0;row;0,0;True;True;True;1,26699995995;True;1,09400010109
AAF1997w;experiment;2017-04-24-14-40-01;4,0;18,0;100;0,0;2,0;3,0;1,0;column;0,0;True;False;True;0,964999914169;True;1,23000001907
AAF1997w;experiment;2017-04-24-14-40-01;4,0;19,0;100;1,0;3,0;0,0;2,0;column;1,0;True;True;True;1,09999990463;True;0,625
AAF1997w;experiment;2017-04-24-14-40-01;4,0;20,0;100;3,0;0,0;2,0;1,0;column;1,0;True;False;True;1,13199996948;True;0,59600019455
AAF1997w;experiment;2017-04-24-14-40-01;4,0;21,0;100;2,0;0,0;1,0;3,0;row;1,0;False;True;True;1,16600012779;False;0,62700009346
AAF1997w;experiment;2017-04-24-14-40-01;4,0;22,0;100;0,0;2,0;3,0;1,0;row;1,0;False;False;False;1,06699991226;True;1,03200006485
AAF1997w;experiment;2017-04-24-14-40-01;4,0;23,0;100;3,0;0,0;2,0;1,0;row;0,0;True;False;True;1,0;True;1,10400009155
AAF1997w;experiment;2017-04-24-14-40-01;4,0;24,0;100;1,0;3,0;0,0;2,0;column;0,0;False;True;False;1,19900012016;True;1,20299983025
AAF1997w;experiment;2017-04-24-14-40-01;4,0;25,0;100;1,0;3,0;2,0;0,0;column;1,0;True;False;True;1,2990000248;True;0,887000083923
AAF1997w;experiment;2017-04-24-14-40-01;4,0;26,0;100;2,0;0,0;1,0;3,0;column;0,0;False;True;False;1,20000004768;True;1,47000002861
AAF1997w;experiment;2017-04-24-14-40-01;4,0;27,0;100;2,0;3,0;1,0;0,0;column;0,0;True;True;True;0,934000015259;True;0,59299993515
AAF1997w;experiment;2017-04-24-14-40-01;4,0;28,0;100;1,0;2,0;3,0;0,0;column;1,0;True;False;True;1,0649998188;True;0,695999860764
AAF1997w;experiment;2017-04-24-14-40-01;4,0;29,0;100;3,0;2,0;0,0;1,0;column;1,0;True;False;True;0,96599984169;True;1,27099990845
AAF1997w;experiment;2017-04-24-14-40-01;4,0;30,0;100;2,0;0,0;1,0;3,0;row;0,0;False;True;False;1,26900005341;True;0,572000026703
AAF1997w;experiment;2017-04-24-14-40-01;4,0;31,0;100;1,0;0,0;2,0;3,0;column;1,0;True;True;True;0,932999849319;True;1,26999998093
AAF1997w;experiment;2017-04-24-14-40-01;4,0;32,0;100;3,0;2,0;0,0;1,0;row;1,0;False;False;True;1,29999995232;False;1,16300010681
AAF1997w;experiment;2017-04-24-14-40-01;4,0;33,0;100;0,0;1,0;3,0;2,0;row;1,0;False;True;True;1,20000004768;False;0,601000070572
AAF1997w;experiment;2017-04-24-14-40-01;4,0;34,0;100;3,0;2,0;0,0;1,0;row;0,0;True;True;True;1,36800003052;True;0,753999948502
AAF1997w;experiment;2017-04-24-14-40-01;4,0;35,0;100;0,0;3,0;1,0;2,0;row;1,0;True;False;True;1,09999990463;True;0,570000171661
AAF1997w;experiment;2017-04-24-14-40-01;4,0;36,0;100;3,0;2,0;1,0;0,0;column;0,0;True;False;True;1,29999995232;True;0,830999851227
AAF1997w;experiment;2017-04-24-14-40-01;4,0;37,0;100;0,0;2,0;3,0;1,0;row;0,0;False;False;False;1,16600012779;True;1,23000001907
AAF1997w;experiment;2017-04-24-14-40-01;4,0;38,0;100;0,0;1,0;2,0;3,0;column;1,0;True;True;True;1,10000014305;True;0,726000070572
AAF1997w;experiment;2017-04-24-14-40-01;4,0;39,0;100;1,0;2,0;3,0;0,0;column;0,0;False;False;False;0,930999994278;True;1,46500015259
AAF1997w;experiment;2017-04-24-14-40-01;4,0;40,0;100;2,0;3,0;1,0;0,0;row;0,0;True;True;True;0,899999856949;True;0,858999967575
AAF1997w;experiment;2017-04-24-14-40-01;4,0;41,0;100;2,0;0,0;3,0;1,0;row;1,0;True;False;True;1,46700000763;True;1,06299996376
AAF1997w;experiment;2017-04-24-14-40-01;4,0;42,0;100;3,0;1,0;0,0;2,0;column;1,0;True;False;True;1,26799988747;True;0,532999992371
AAF1997w;experiment;2017-04-24-14-40-01;4,0;43,0;100;3,0;0,0;1,0;2,0;column;1,0;True;False;True;0,967000007629;True;0,925999879837
AAF1997w;experiment;2017-04-24-14-40-01;4,0;44,0;100;2,0;3,0;0,0;1,0;column;1,0;True;True;False;0,834000110626;False;0,93499994278
AAF1997w;experiment;2017-04-24-14-40-01;4,0;45,0;100;3,0;0,0;2,0;1,0;row;0,0;False;False;False;1,39999985695;True;0,670000076294
AAF1997w;experiment;2017-04-24-14-40-01;4,0;46,0;100;2,0;3,0;0,0;1,0;row;1,0;False;True;False;1,2650001049;True;1,26200008392
AAF1997w;experiment;2017-04-24-14-40-01;4,0;47,0;100;3,0;1,0;2,0;0,0;row;1,0;False;True;False;1,16700005531;True;1,09500002861
AAF1997w;experiment;2017-04-24-14-40-01;4,0;48,0;100;1,0;3,0;0,0;2,0;row;0,0;True;False;True;0,800000190735;True;0,568000078201
AAF1997w;experiment;2017-04-24-14-40-01;5,0;1,0;1000;2,0;0,0;3,0;1,0;column;0,0;True;False;True;1,23300004005;True;1,46399998665
AAF1997w;experiment;2017-04-24-14-40-01;5,0;2,0;1000;0,0;1,0;3,0;2,0;column;0,0;False;True;False;1,09999990463;True;1,10500001907
AAF1997w;experiment;2017-04-24-14-40-01;5,0;3,0;1000;1,0;0,0;2,0;3,0;column;1,0;True;True;True;1,16700005531;True;1,5039999485
AAF1997w;experiment;2017-04-24-14-40-01;5,0;4,0;1000;2,0;0,0;3,0;1,0;column;1,0;False;True;False;1,56700015068;True;1,13599991798
AAF1997w;experiment;2017-04-24-14-40-01;5,0;5,0;1000;0,0;1,0;2,0;3,0;column;1,0;True;True;True;1,33400011063;True;0,93700003624
AAF1997w;experiment;2017-04-24-14-40-01;5,0;6,0;1000;0,0;2,0;1,0;3,0;column;0,0;False;True;False;1,29999995232;True;0,90299987793
AAF1997w;experiment;2017-04-24-14-40-01;5,0;7,0;1000;2,0;3,0;1,0;0,0;column;0,0;True;False;False;1,26600003242;False;0,734999895096
AAF1997w;experiment;2017-04-24-14-40-01;5,0;8,0;1000;0,0;1,0;3,0;2,0;row;0,0;False;False;False;1,43300008774;True;0,990999937057
AAF1997w;experiment;2017-04-24-14-40-01;5,0;9,0;1000;2,0;3,0;0,0;1,0;column;1,0;False;True;False;1,09899997711;True;0,970999956131
AAF1997w;experiment;2017-04-24-14-40-01;5,0;10,0;1000;0,0;1,0;3,0;2,0;row;1,0;False;False;False;1,96700000763;True;0,733999967575
AAF1997w;experiment;2017-04-24-14-40-01;5,0;11,0;1000;1,0;3,0;2,0;0,0;row;0,0;False;False;False;1,2349998951;True;1,12599992752
AAF1997w;experiment;2017-04-24-14-40-01;5,0;12,0;1000;1,0;0,0;3,0;2,0;column;1,0;False;False;False;1,26699995995;True;1,30099987984
AAF1997w;experiment;2017-04-24-14-40-01;5,0;13,0;1000;1,0;0,0;3,0;2,0;column;1,0;True;True;True;1,4319999218;True;1,00100016594
AAF1997w;experiment;2017-04-24-14-40-01;5,0;14,0;1000;3,0;0,0;2,0;1,0;row;0,0;False;True;False;1,367000103;True;0,870000123978
AAF1997w;experiment;2017-04-24-14-40-01;5,0;15,0;1000;0,0;3,0;2,0;1,0;column;0,0;False;False;False;1,13199996948;True;1,00099992752
AAF1997w;experiment;2017-04-24-14-40-01;5,0;16,0;1000;3,0;1,0;0,0;2,0;row;0,0;False;False;False;1,56699991226;True;1,23100018501
AAF1997w;experiment;2017-04-24-14-40-01;5,0;17,0;1000;1,0;0,0;3,0;2,0;row;1,0;True;True;True;1,23399996758;True;1,49900007248
AAF1997w;experiment;2017-04-24-14-40-01;5,0;18,0;1000;1,0;2,0;0,0;3,0;row;0,0;True;False;False;1,23300004005;False;0,568000078201
AAF1997w;experiment;2017-04-24-14-40-01;5,0;19,0;1000;2,0;1,0;0,0;3,0;column;0,0;False;False;False;1,4319999218;True;1,43800020218
AAF1997w;experiment;2017-04-24-14-40-01;5,0;20,0;1000;3,0;0,0;1,0;2,0;column;1,0;True;True;True;1,43300008774;True;0,563999891281
AAF1997w;experiment;2017-04-24-14-40-01;5,0;21,0;1000;0,0;3,0;2,0;1,0;column;1,0;True;False;True;1,33400011063;True;1,47399997711
AAF1997w;experiment;2017-04-24-14-40-01;5,0;22,0;1000;0,0;3,0;2,0;1,0;row;1,0;False;False;False;1,867000103;True;1,32800006866
AAF1997w;experiment;2017-04-24-14-40-01;5,0;23,0;1000;1,0;2,0;0,0;3,0;column;0,0;False;False;False;1,56599998474;True;0,803999900818
AAF1997w;experiment;2017-04-24-14-40-01;5,0;24,0;1000;1,0;2,0;3,0;0,0;column;1,0;False;False;False;1,23399996758;True;1,36400008202
AAF1997w;experiment;2017-04-24-14-40-01;5,0;25,0;1000;1,0;0,0;3,0;2,0;row;0,0;False;True;False;0,932999849319;True;0,736999988556
AAF1997w;experiment;2017-04-24-14-40-01;5,0;26,0;1000;1,0;0,0;2,0;3,0;column;1,0;False;True;False;1,29999995232;True;1,23900008202
AAF1997w;experiment;2017-04-24-14-40-01;5,0;27,0;1000;2,0;3,0;0,0;1,0;row;1,0;True;False;False;1,03399991989;False;0,767999887466
AAF1997w;experiment;2017-04-24-14-40-01;5,0;28,0;1000;0,0;2,0;3,0;1,0;row;1,0;True;True;True;1,8639998436;True;1,43499994278
AAF1997w;experiment;2017-04-24-14-40-01;5,0;29,0;1000;2,0;1,0;3,0;0,0;column;0,0;False;False;False;1,40000009537;True;0,702000141144
AAF1997w;experiment;2017-04-24-14-40-01;5,0;30,0;1000;0,0;3,0;1,0;2,0;column;0,0;False;True;False;1,09899997711;True;1,29099988937
AAF1997w;experiment;2017-04-24-14-40-01;5,0;31,0;1000;0,0;1,0;3,0;2,0;row;0,0;True;True;True;1,63400006294;True;1,12800002098
AAF1997w;experiment;2017-04-24-14-40-01;5,0;32,0;1000;0,0;3,0;2,0;1,0;column;1,0;False;True;False;1,03200006485;True;1,37099981308
AAF1997w;experiment;2017-04-24-14-40-01;5,0;33,0;1000;3,0;2,0;0,0;1,0;column;0,0;False;False;False;1,39999985695;True;0,567000150681
AAF1997w;experiment;2017-04-24-14-40-01;5,0;34,0;1000;0,0;2,0;3,0;1,0;row;0,0;True;True;True;1,36699986458;True;0,903000116348
AAF1997w;experiment;2017-04-24-14-40-01;5,0;35,0;1000;1,0;0,0;2,0;3,0;row;1,0;False;True;False;1,79999995232;True;1,0569999218
AAF1997w;experiment;2017-04-24-14-40-01;5,0;36,0;1000;0,0;3,0;2,0;1,0;row;0,0;True;True;True;1,23300004005;True;0,568000078201
AAF1997w;experiment;2017-04-24-14-40-01;5,0;37,0;1000;3,0;2,0;1,0;0,0;row;0,0;False;True;False;1,26699995995;True;0,726999998093
AAF1997w;experiment;2017-04-24-14-40-01;5,0;38,0;1000;1,0;2,0;3,0;0,0;column;0,0;True;False;True;1,06599998474;True;1,16799998283
AAF1997w;experiment;2017-04-24-14-40-01;5,0;39,0;1000;1,0;2,0;3,0;0,0;row;1,0;True;True;True;1,56699991226;True;0,701999902725
AAF1997w;experiment;2017-04-24-14-40-01;5,0;40,0;1000;3,0;0,0;1,0;2,0;row;1,0;True;True;True;1,132999897;True;1,02900004387
AAF1997w;experiment;2017-04-24-14-40-01;5,0;41,0;1000;0,0;1,0;2,0;3,0;row;0,0;False;True;False;1,03399991989;True;0,801999807358
AAF1997w;experiment;2017-04-24-14-40-01;5,0;42,0;1000;0,0;3,0;1,0;2,0;row;0,0;False;True;False;1,03399991989;True;1,5
AAF1997w;experiment;2017-04-24-14-40-01;5,0;43,0;1000;3,0;2,0;1,0;0,0;column;0,0;False;True;False;1,26799988747;True;0,567000150681
AAF1997w;experiment;2017-04-24-14-40-01;5,0;44,0;1000;3,0;1,0;0,0;2,0;column;0,0;True;False;True;0,934000015259;True;1,20000004768
AAF1997w;experiment;2017-04-24-14-40-01;5,0;45,0;1000;0,0;1,0;2,0;3,0;column;1,0;False;False;False;0,799999952316;True;0,825000047684
AAF1997w;experiment;2017-04-24-14-40-01;5,0;46,0;1000;1,0;3,0;0,0;2,0;column;0,0;True;True;True;0,998999834061;True;1,1930000782
AAF1997w;experiment;2017-04-24-14-40-01;5,0;47,0;1000;3,0;1,0;2,0;0,0;row;1,0;True;True;True;1,09999990463;True;1,0680000782
AAF1997w;experiment;2017-04-24-14-40-01;5,0;48,0;1000;0,0;2,0;3,0;1,0;column;0,0;True;False;True;1,09800004959;True;0,536000013351
AAF1997w;experiment;2017-04-24-14-40-01;6,0;1,0;-100;0,0;1,0;2,0;3,0;row;1,0;False;True;False;1,14900016785;True;0,666000127792
AAF1997w;experiment;2017-04-24-14-40-01;6,0;2,0;-100;2,0;3,0;1,0;0,0;column;1,0;True;False;True;1,21699976921;True;1,3710000515
AAF1997w;experiment;2017-04-24-14-40-01;6,0;3,0;-100;1,0;0,0;2,0;3,0;row;1,0;False;True;False;1,01699995995;True;1,17000007629
AAF1997w;experiment;2017-04-24-14-40-01;6,0;4,0;-100;2,0;1,0;3,0;0,0;column;1,0;True;True;True;0,851999998093;True;1,32899999619
AAF1997w;experiment;2017-04-24-14-40-01;6,0;5,0;-100;1,0;0,0;2,0;3,0;column;0,0;True;True;True;1,18000006676;True;0,700999975204
AAF1997w;experiment;2017-04-24-14-40-01;6,0;6,0;-100;2,0;1,0;3,0;0,0;row;1,0;True;False;True;1,11500000954;True;1,23699998856
AAF1997w;experiment;2017-04-24-14-40-01;6,0;7,0;-100;0,0;2,0;3,0;1,0;row;0,0;False;False;False;1,14899992943;True;0,837999820709
AAF1997w;experiment;2017-04-24-14-40-01;6,0;8,0;-100;1,0;2,0;3,0;0,0;row;0,0;True;False;True;0,983999967575;True;0,569000005722
AAF1997w;experiment;2017-04-24-14-40-01;6,0;9,0;-100;3,0;0,0;2,0;1,0;row;1,0;False;False;False;0,914999961853;True;1,26299977303
AAF1997w;experiment;2017-04-24-14-40-01;6,0;10,0;-100;2,0;0,0;1,0;3,0;row;0,0;True;True;True;0,881999969482;True;0,503999948502
AAF1997w;experiment;2017-04-24-14-40-01;6,0;11,0;-100;2,0;1,0;3,0;0,0;row;0,0;False;False;False;0,949999809265;True;0,895999908447
AAF1997w;experiment;2017-04-24-14-40-01;6,0;12,0;-100;2,0;1,0;0,0;3,0;row;1,0;False;False;False;0,681999921799;True;1,03600001335
AAF1997w;experiment;2017-04-24-14-40-01;6,0;13,0;-100;0,0;3,0;1,0;2,0;column;1,0;True;False;True;1,14999985695;True;0,924000024796
AAF1997w;experiment;2017-04-24-14-40-01;6,0;14,0;-100;3,0;2,0;0,0;1,0;row;1,0;False;False;False;0,716000080109;True;0,703000068665
AAF1997w;experiment;2017-04-24-14-40-01;6,0;15,0;-100;0,0;3,0;2,0;1,0;row;0,0;False;True;False;0,717000007629;True;0,901000022888
AAF1997w;experiment;2017-04-24-14-40-01;6,0;16,0;-100;2,0;0,0;1,0;3,0;column;1,0;False;False;False;1,11699986458;True;0,569999933243
AAF1997w;experiment;2017-04-24-14-40-01;6,0;17,0;-100;3,0;1,0;2,0;0,0;row;0,0;True;True;True;0,71599984169;True;0,630000114441
AAF1997w;experiment;2017-04-24-14-40-01;6,0;18,0;-100;2,0;3,0;0,0;1,0;row;0,0;True;True;True;0,717000007629;True;0,963999986649
AAF1997w;experiment;2017-04-24-14-40-01;6,0;19,0;-100;1,0;3,0;2,0;0,0;column;0,0;False;True;False;0,717000007629;True;1,09899997711
AAF1997w;experiment;2017-04-24-14-40-01;6,0;20,0;-100;1,0;0,0;3,0;2,0;row;0,0;True;False;True;0,684000015259;True;0,901999950409
AAF1997w;experiment;2017-04-24-14-40-01;6,0;21,0;-100;1,0;3,0;0,0;2,0;row;0,0;True;False;True;0,680999994278;True;1,49599981308
AAF1997w;experiment;2017-04-24-14-40-01;6,0;22,0;-100;3,0;0,0;1,0;2,0;column;0,0;False;False;False;0,616999864578;True;0,692999839783
AAF1997w;experiment;2017-04-24-14-40-01;6,0;23,0;-100;0,0;3,0;2,0;1,0;column;1,0;False;False;False;1,04799985886;True;0,567000150681
AAF1997w;experiment;2017-04-24-14-40-01;6,0;24,0;-100;0,0;2,0;1,0;3,0;column;0,0;True;False;True;0,716000080109;True;1,29999995232
AAF1997w;experiment;2017-04-24-14-40-01;6,0;25,0;-100;3,0;1,0;0,0;2,0;column;0,0;False;True;False;1,01599979401;True;0,897000074387
AAF1997w;experiment;2017-04-24-14-40-01;6,0;26,0;-100;2,0;3,0;0,0;1,0;column;0,0;True;False;True;0,950000047684;True;1,20199990273
AAF1997w;experiment;2017-04-24-14-40-01;6,0;27,0;-100;3,0;1,0;2,0;0,0;row;1,0;False;True;False;0,848999977112;True;1,53199982643
AAF1997w;experiment;2017-04-24-14-40-01;6,0;28,0;-100;2,0;1,0;0,0;3,0;column;1,0;False;True;False;0,717000007629;True;1,49099993706
AAF1997w;experiment;2017-04-24-14-40-01;6,0;29,0;-100;2,0;0,0;3,0;1,0;column;0,0;True;True;True;0,683000087738;True;1,10100007057
AAF1997w;experiment;2017-04-24-14-40-01;6,0;30,0;-100;0,0;2,0;1,0;3,0;column;0,0;False;False;False;0,849999904633;True;0,59500002861
AAF1997w;experiment;2017-04-24-14-40-01;6,0;31,0;-100;1,0;2,0;3,0;0,0;column;1,0;False;True;False;0,917000055313;True;0,59500002861
AAF1997w;experiment;2017-04-24-14-40-01;6,0;32,0;-100;0,0;2,0;3,0;1,0;column;0,0;False;False;False;0,650000095367;True;1,41900014877
AAF1997w;experiment;2017-04-24-14-40-01;6,0;33,0;-100;0,0;1,0;3,0;2,0;row;1,0;True;True;True;0,916000127792;True;1,3630001545
AAF1997w;experiment;2017-04-24-14-40-01;6,0;34,0;-100;0,0;3,0;2,0;1,0;column;0,0;False;False;False;0,716000080109;True;0,834999799728
AAF1997w;experiment;2017-04-24-14-40-01;6,0;35,0;-100;0,0;3,0;1,0;2,0;row;0,0;False;False;False;0,750999927521;True;1,30200004578
AAF1997w;experiment;2017-04-24-14-40-01;6,0;36,0;-100;3,0;2,0;1,0;0,0;row;0,0;True;False;True;0,849999904633;True;0,729000091553
AAF1997w;experiment;2017-04-24-14-40-01;6,0;37,0;-100;3,0;0,0;2,0;1,0;row;0,0;False;True;False;0,782999992371;True;0,972999811172
AAF1997w;experiment;2017-04-24-14-40-01;6,0;38,0;-100;2,0;0,0;1,0;3,0;row;1,0;True;False;True;0,917000055313;True;1,4279999733
AAF1997w;experiment;2017-04-24-14-40-01;6,0;39,0;-100;0,0;3,0;1,0;2,0;row;0,0;True;False;True;0,917000055313;True;0,59700012207
AAF1997w;experiment;2017-04-24-14-40-01;6,0;40,0;-100;3,0;2,0;0,0;1,0;column;0,0;False;True;False;0,617000102997;True;1,02699995041
AAF1997w;experiment;2017-04-24-14-40-01;6,0;41,0;-100;3,0;2,0;0,0;1,0;row;0,0;True;True;True;0,650000095367;True;0,769999980927
AAF1997w;experiment;2017-04-24-14-40-01;6,0;42,0;-100;2,0;1,0;3,0;0,0;column;1,0;False;True;False;0,650000095367;True;0,756999969482
AAF1997w;experiment;2017-04-24-14-40-01;6,0;43,0;-100;0,0;3,0;2,0;1,0;row;0,0;True;True;True;0,783999919891;True;1,40000009537
AAF1997w;experiment;2017-04-24-14-40-01;6,0;44,0;-100;3,0;1,0;2,0;0,0;row;1,0;True;False;True;0,917000055313;True;1,39400005341
AAF1997w;experiment;2017-04-24-14-40-01;6,0;45,0;-100;0,0;2,0;3,0;1,0;row;1,0;False;False;False;0,75;True;1,46899986267
AAF1997w;experiment;2017-04-24-14-40-01;6,0;46,0;-100;0,0;2,0;1,0;3,0;row;0,0;True;False;True;0,684000015259;True;0,767999887466
AAF1997w;experiment;2017-04-24-14-40-01;6,0;47,0;-100;2,0;1,0;0,0;3,0;column;0,0;True;False;False;0,749000072479;False;1,23000001907
AAF1997w;experiment;2017-04-24-14-40-01;6,0;48,0;-100;1,0;2,0;0,0;3,0;row;0,0;True;True;True;0,917000055313;True;0,925999879837
AAF1997w;experiment;2017-04-24-14-40-01;7,0;1,0;-100;3,0;2,0;1,0;0,0;row;0,0;False;True;False;0,783999919891;True;0,594000101089
AAF1997w;experiment;2017-04-24-14-40-01;7,0;2,0;-100;1,0;3,0;2,0;0,0;row;1,0;False;False;False;0,650000095367;True;1,29999995232
AAF1997w;experiment;2017-04-24-14-40-01;7,0;3,0;-100;3,0;0,0;1,0;2,0;column;0,0;True;True;True;0,650000095367;True;0,802000045776
AAF1997w;experiment;2017-04-24-14-40-01;7,0;4,0;-100;0,0;1,0;3,0;2,0;column;1,0;True;False;False;0,650000095367;False;0,696000099182
AAF1997w;experiment;2017-04-24-14-40-01;7,0;5,0;-100;0,0;1,0;3,0;2,0;column;0,0;False;False;False;0,649999856949;True;1,25500011444
AAF1997w;experiment;2017-04-24-14-40-01;7,0;6,0;-100;3,0;0,0;1,0;2,0;column;1,0;False;False;False;0,983999967575;True;0,536999940872
AAF1997w;experiment;2017-04-24-14-40-01;7,0;7,0;-100;2,0;1,0;3,0;0,0;row;1,0;False;False;False;1,04899978638;True;0,563999891281
AAF1997w;experiment;2017-04-24-14-40-01;7,0;8,0;-100;3,0;1,0;2,0;0,0;column;1,0;True;True;True;0,75;True;0,828999996185
AAF1997w;experiment;2017-04-24-14-40-01;7,0;9,0;-100;0,0;2,0;3,0;1,0;row;1,0;True;True;True;0,684000015259;True;0,56299996376
AAF1997w;experiment;2017-04-24-14-40-01;7,0;10,0;-100;0,0;1,0;2,0;3,0;row;0,0;False;False;False;0,815999984741;True;1,26400017738
AAF1997w;experiment;2017-04-24-14-40-01;7,0;11,0;-100;0,0;1,0;2,0;3,0;column;1,0;False;True;False;0,983000040054;True;0,637000083923
AAF1997w;experiment;2017-04-24-14-40-01;7,0;12,0;-100;2,0;3,0;1,0;0,0;column;0,0;False;True;False;0,915999889374;True;1,35800004005
AAF1997w;experiment;2017-04-24-14-40-01;7,0;13,0;-100;2,0;0,0;3,0;1,0;row;1,0;True;True;True;0,717000007629;True;1,00099992752
AAF1997w;experiment;2017-04-24-14-40-01;7,0;14,0;-100;2,0;1,0;0,0;3,0;column;0,0;False;False;False;0,717000007629;True;0,962000131607
AAF1997w;experiment;2017-04-24-14-40-01;7,0;15,0;-100;3,0;1,0;0,0;2,0;column;1,0;True;False;True;1,18300008774;True;0,9359998703
AAF1997w;experiment;2017-04-24-14-40-01;7,0;16,0;-100;1,0;0,0;2,0;3,0;column;1,0;False;True;False;0,90700006485;True;0,766999959946
AAF1997w;experiment;2017-04-24-14-40-01;7,0;17,0;-100;1,0;2,0;0,0;3,0;column;0,0;True;True;True;0,683000087738;True;1,30199980736
AAF1997w;experiment;2017-04-24-14-40-01;7,0;18,0;-100;3,0;2,0;0,0;1,0;row;1,0;True;False;True;0,75;True;1,26099991798
AAF1997w;experiment;2017-04-24-14-40-01;7,0;19,0;-100;3,0;0,0;2,0;1,0;column;1,0;False;True;False;0,883000135422;True;0,756000041962
AAF1997w;experiment;2017-04-24-14-40-01;7,0;20,0;-100;0,0;2,0;3,0;1,0;row;0,0;True;True;True;0,717000007629;True;1,03799986839
AAF1997w;experiment;2017-04-24-14-40-01;7,0;21,0;-100;1,0;3,0;2,0;0,0;row;0,0;True;True;True;0,882000207901;True;0,898999929428
AAF1997w;experiment;2017-04-24-14-40-01;7,0;22,0;-100;1,0;0,0;3,0;2,0;column;0,0;True;False;True;0,917000055313;True;0,533999919891
AAF1997w;experiment;2017-04-24-14-40-01;7,0;23,0;-100;2,0;3,0;0,0;1,0;row;1,0;False;True;False;0,948999881744;True;0,569000005722
AAF1997w;experiment;2017-04-24-14-40-01;7,0;24,0;-100;1,0;0,0;2,0;3,0;row;1,0;True;False;True;0,716000080109;True;1,26200008392
AAF1997w;experiment;2017-04-24-14-40-01;7,0;25,0;-100;2,0;1,0;3,0;0,0;column;0,0;False;True;False;0,685000181198;True;1,30399990082
AAF1997w;experiment;2017-04-24-14-40-01;7,0;26,0;-100;1,0;0,0;3,0;2,0;row;0,0;False;True;False;0,981000185013;True;0,796999931335
AAF1997w;experiment;2017-04-24-14-40-01;7,0;27,0;-100;3,0;2,0;0,0;1,0;column;0,0;True;True;True;0,950000047684;True;0,833999872208
AAF1997w;experiment;2017-04-24-14-40-01;7,0;28,0;-100;0,0;1,0;3,0;2,0;row;1,0;False;True;False;0,75;True;1,22900009155
AAF1997w;experiment;2017-04-24-14-40-01;7,0;29,0;-100;0,0;1,0;2,0;3,0;column;0,0;True;True;True;0,683000087738;True;1,16900014877
AAF1997w;experiment;2017-04-24-14-40-01;7,0;30,0;-100;1,0;2,0;3,0;0,0;row;0,0;False;False;False;0,650000095367;True;0,861000061035
AAF1997w;experiment;2017-04-24-14-40-01;7,0;31,0;-100;2,0;3,0;0,0;1,0;row;1,0;True;False;True;0,682000160217;True;0,822000026703
AAF1997w;experiment;2017-04-24-14-40-01;7,0;32,0;-100;1,0;2,0;3,0;0,0;row;1,0;True;True;True;0,684000015259;True;0,838000059128
AAF1997w;experiment;2017-04-24-14-40-01;7,0;33,0;-100;1,0;2,0;0,0;3,0;column;1,0;True;False;True;0,78200006485;True;1,29699993134
AAF1997w;experiment;2017-04-24-14-40-01;7,0;34,0;-100;3,0;1,0;0,0;2,0;column;1,0;False;True;False;0,749000072479;True;1,46100020409
AAF1997w;experiment;2017-04-24-14-40-01;7,0;35,0;-100;3,0;1,0;2,0;0,0;column;1,0;False;False;False;0,815999984741;True;0,667000055313
AAF1997w;experiment;2017-04-24-14-40-01;7,0;36,0;-100;2,0;0,0;1,0;3,0;column;0,0;True;False;True;0,815999984741;True;0,762000083923
AAF1997w;experiment;2017-04-24-14-40-01;7,0;37,0;-100;1,0;0,0;3,0;2,0;column;1,0;True;False;True;1,11699986458;True;0,926999807358
AAF1997w;experiment;2017-04-24-14-40-01;7,0;38,0;-100;2,0;0,0;3,0;1,0;column;0,0;False;False;False;0,949999809265;True;0,670000076294
AAF1997w;experiment;2017-04-24-14-40-01;7,0;39,0;-100;2,0;3,0;1,0;0,0;row;0,0;True;True;True;0,782999992371;True;0,670000076294
AAF1997w;experiment;2017-04-24-14-40-01;7,0;40,0;-100;3,0;1,0;0,0;2,0;row;0,0;False;False;False;0,850000143051;True;1,16600012779
AAF1997w;experiment;2017-04-24-14-40-01;7,0;41,0;-100;2,0;0,0;3,0;1,0;row;0,0;False;False;False;0,884000062943;True;1,3029999733
AAF1997w;experiment;2017-04-24-14-40-01;7,0;42,0;-100;1,0;3,0;0,0;2,0;column;0,0;True;False;True;0,615999937057;True;1,08699989319
AAF1997w;experiment;2017-04-24-14-40-01;7,0;43,0;-100;1,0;2,0;0,0;3,0;column;0,0;False;False;False;0,78200006485;True;0,629999876022
AAF1997w;experiment;2017-04-24-14-40-01;7,0;44,0;-100;3,0;0,0;1,0;2,0;row;1,0;True;False;True;0,684000015259;True;0,895999908447
AAF1997w;experiment;2017-04-24-14-40-01;7,0;45,0;-100;0,0;3,0;1,0;2,0;column;0,0;True;True;True;0,717000007629;True;0,927999973297
AAF1997w;experiment;2017-04-24-14-40-01;7,0;46,0;-100;1,0;0,0;3,0;2,0;row;1,0;True;False;True;0,714999914169;True;0,633999824524
AAF1997w;experiment;2017-04-24-14-40-01;7,0;47,0;-100;2,0;0,0;3,0;1,0;column;1,0;False;True;False;0,714999914169;True;1,1289999485
AAF1997w;experiment;2017-04-24-14-40-01;7,0;48,0;-100;0,0;1,0;2,0;3,0;row;0,0;True;False;True;1,11599993706;True;0,760999917984
AAF1997w;experiment;2017-04-24-14-40-01;8,0;1,0;1000;1,0;0,0;3,0;2,0;row;0,0;True;True;True;1,03200006485;True;0,665999889374
AAF1997w;experiment;2017-04-24-14-40-01;8,0;2,0;1000;2,0;1,0;0,0;3,0;row;0,0;False;False;False;1,32999992371;True;0,669999837875
AAF1997w;experiment;2017-04-24-14-40-01;8,0;3,0;1000;2,0;1,0;3,0;0,0;column;1,0;True;False;True;1,09899997711;True;1,03600001335
AAF1997w;experiment;2017-04-24-14-40-01;8,0;4,0;1000;0,0;2,0;1,0;3,0;row;1,0;False;False;False;0,96599984169;True;0,667999982834
AAF1997w;experiment;2017-04-24-14-40-01;8,0;5,0;1000;1,0;2,0;0,0;3,0;row;1,0;False;True;False;1,23300004005;True;0,97100019455
AAF1997w;experiment;2017-04-24-14-40-01;8,0;6,0;1000;2,0;3,0;1,0;0,0;row;0,0;False;False;False;0,932999849319;True;0,56200003624
AAF1997w;experiment;2017-04-24-14-40-01;8,0;7,0;1000;3,0;1,0;2,0;0,0;row;1,0;False;True;False;1,3639998436;True;1,52999997139
AAF1997w;experiment;2017-04-24-14-40-01;8,0;8,0;1000;2,0;1,0;3,0;0,0;column;1,0;False;True;False;1,2009999752;True;1,36400008202
AAF1997w;experiment;2017-04-24-14-40-01;8,0;9,0;1000;1,0;3,0;0,0;2,0;row;1,0;False;False;False;1,46600008011;True;0,68799996376
AAF1997w;experiment;2017-04-24-14-40-01;8,0;10,0;1000;1,0;3,0;2,0;0,0;row;1,0;True;False;True;1,13100004196;True;1,1360001564
AAF1997w;experiment;2017-04-24-14-40-01;8,0;11,0;1000;3,0;0,0;1,0;2,0;row;0,0;True;False;True;1,13300013542;True;1,23600006104
AAF1997w;experiment;2017-04-24-14-40-01;8,0;12,0;1000;0,0;2,0;1,0;3,0;column;0,0;True;False;True;1,79999995232;True;1,33100008965
AAF1997w;experiment;2017-04-24-14-40-01;8,0;13,0;1000;1,0;3,0;2,0;0,0;column;1,0;True;True;True;1,39999985695;True;1,36999988556
AAF1997w;experiment;2017-04-24-14-40-01;8,0;14,0;1000;1,0;0,0;3,0;2,0;column;0,0;False;True;False;1,20000004768;True;1,03800010681
AAF1997w;experiment;2017-04-24-14-40-01;8,0;15,0;1000;1,0;2,0;0,0;3,0;row;1,0;True;True;True;1,7990000248;True;0,569999933243
AAF1997w;experiment;2017-04-24-14-40-01;8,0;16,0;1000;3,0;2,0;1,0;0,0;row;1,0;False;True;False;0,967000007629;True;0,728999853134
AAF1997w;experiment;2017-04-24-14-40-01;8,0;17,0;1000;0,0;1,0;2,0;3,0;row;1,0;False;True;False;0,767000198364;True;0,803999900818
AAF1997w;experiment;2017-04-24-14-40-01;8,0;18,0;1000;0,0;1,0;2,0;3,0;column;0,0;False;True;False;1,76699995995;True;1,39900016785
AAF1997w;experiment;2017-04-24-14-40-01;8,0;19,0;1000;2,0;3,0;0,0;1,0;column;0,0;True;True;True;1,43299984932;True;0,96799993515
AAF1997w;experiment;2017-04-24-14-40-01;8,0;20,0;1000;0,0;2,0;1,0;3,0;row;1,0;True;True;True;1,0;True;0,635999917984
AAF1997w;experiment;2017-04-24-14-40-01;8,0;21,0;1000;2,0;3,0;1,0;0,0;column;1,0;True;False;True;1,26699995995;True;1,4960000515
AAF1997w;experiment;2017-04-24-14-40-01;8,0;22,0;1000;0,0;2,0;3,0;1,0;column;0,0;False;True;False;1,0;True;0,769999980927
AAF1997w;experiment;2017-04-24-14-40-01;8,0;23,0;1000;3,0;1,0;2,0;0,0;row;0,0;False;True;False;1,83100008965;True;1,0609998703
AAF1997w;experiment;2017-04-24-14-40-01;8,0;24,0;1000;1,0;2,0;0,0;3,0;column;1,0;True;True;True;1,09899997711;True;0,670000076294
AAF1997w;experiment;2017-04-24-14-40-01;8,0;25,0;1000;0,0;2,0;1,0;3,0;column;1,0;False;True;False;1,40100002289;True;0,52999997139
AAF1997w;experiment;2017-04-24-14-40-01;8,0;26,0;1000;3,0;2,0;1,0;0,0;column;1,0;True;False;True;1,03399991989;True;1,36500000954
AAF1997w;experiment;2017-04-24-14-40-01;8,0;27,0;1000;2,0;1,0;3,0;0,0;row;0,0;False;True;False;1,13199996948;True;1,40099978447
AAF1997w;experiment;2017-04-24-14-40-01;8,0;28,0;1000;0,0;3,0;1,0;2,0;row;1,0;True;False;True;1,00100016594;True;1,32899999619
AAF1997w;experiment;2017-04-24-14-40-01;8,0;29,0;1000;2,0;1,0;0,0;3,0;row;0,0;True;True;False;1,03399991989;False;0,897000074387
AAF1997w;experiment;2017-04-24-14-40-01;8,0;30,0;1000;1,0;0,0;2,0;3,0;row;0,0;False;True;False;1,63300013542;True;0,90299987793
AAF1997w;experiment;2017-04-24-14-40-01;8,0;31,0;1000;3,0;2,0;0,0;1,0;column;0,0;True;True;True;1,39899992943;True;1,367000103
AAF1997w;experiment;2017-04-24-14-40-01;8,0;32,0;1000;1,0;2,0;3,0;0,0;column;1,0;True;True;True;1,33300018311;True;0,529000043869
AAF1997w;experiment;2017-04-24-14-40-01;8,0;33,0;1000;1,0;3,0;2,0;0,0;column;1,0;False;False;True;1,43299984932;False;1,20399999619
AAF1997w;experiment;2017-04-24-14-40-01;8,0;34,0;1000;3,0;1,0;0,0;2,0;column;0,0;False;True;False;1,33300018311;True;1,26699995995
AAF1997w;experiment;2017-04-24-14-40-01;8,0;35,0;1000;0,0;1,0;2,0;3,0;column;0,0;True;False;True;1,56599998474;True;1,30399990082
AAF1997w;experiment;2017-04-24-14-40-01;8,0;36,0;1000;1,0;2,0;3,0;0,0;row;0,0;True;True;True;1,06500005722;True;0,97000002861
AAF1997w;experiment;2017-04-24-14-40-01;8,0;37,0;1000;3,0;0,0;2,0;1,0;column;1,0;True;False;False;1,63400006294;False;1,39499998093
AAF1997w;experiment;2017-04-24-14-40-01;8,0;38,0;1000;3,0;0,0;2,0;1,0;column;0,0;True;True;True;1,80099987984;True;1,2650001049
AAF1997w;experiment;2017-04-24-14-40-01;8,0;39,0;1000;1,0;2,0;0,0;3,0;column;0,0;True;True;True;0,796000003815;True;1,32999992371
AAF1997w;experiment;2017-04-24-14-40-01;8,0;40,0;1000;0,0;1,0;3,0;2,0;column;1,0;False;True;False;0,899000167847;True;0,894999980927
AAF1997w;experiment;2017-04-24-14-40-01;8,0;41,0;1000;0,0;1,0;2,0;3,0;row;1,0;True;True;True;1,16700005531;True;1,12600016594
AAF1997w;experiment;2017-04-24-14-40-01;8,0;42,0;1000;3,0;2,0;1,0;0,0;row;0,0;True;False;True;1,03299999237;True;0,99799990654
AAF1997w;experiment;2017-04-24-14-40-01;8,0;43,0;1000;3,0;1,0;0,0;2,0;row;0,0;True;True;False;1,0;False;0,694999933243
AAF1997w;experiment;2017-04-24-14-40-01;8,0;44,0;1000;1,0;3,0;0,0;2,0;column;0,0;False;False;False;1,26699995995;True;1,32899999619
AAF1997w;experiment;2017-04-24-14-40-01;8,0;45,0;1000;2,0;0,0;1,0;3,0;row;1,0;True;True;True;0,832999944687;True;1,02999997139
AAF1997w;experiment;2017-04-24-14-40-01;8,0;46,0;1000;1,0;3,0;0,0;2,0;row;0,0;False;True;False;0,834000110626;True;0,5609998703
AAF1997w;experiment;2017-04-24-14-40-01;8,0;47,0;1000;0,0;1,0;3,0;2,0;column;0,0;True;True;True;1,09999990463;True;0,801000118256
AAF1997w;experiment;2017-04-24-14-40-01;8,0;48,0;1000;2,0;0,0;1,0;3,0;column;1,0;False;True;False;0,933000087738;True;0,56299996376
AAF1997w;experiment;2017-04-24-14-40-01;9,0;1,0;100;0,0;1,0;3,0;2,0;row;0,0;False;False;False;0,867000102997;True;0,800999879837
AAF1997w;experiment;2017-04-24-14-40-01;9,0;2,0;100;2,0;1,0;0,0;3,0;row;0,0;False;False;False;1,09899997711;True;0,698999881744
AAF1997w;experiment;2017-04-24-14-40-01;9,0;3,0;100;3,0;0,0;2,0;1,0;row;1,0;False;True;False;1,46700000763;True;0,670000076294
AAF1997w;experiment;2017-04-24-14-40-01;9,0;4,0;100;3,0;0,0;1,0;2,0;column;1,0;False;False;False;1,23300004005;True;1,22800016403
AAF1997w;experiment;2017-04-24-14-40-01;9,0;5,0;100;2,0;3,0;1,0;0,0;column;1,0;False;False;False;1,13300013542;True;0,998999834061
AAF1997w;experiment;2017-04-24-14-40-01;9,0;6,0;100;1,0;3,0;0,0;2,0;column;0,0;True;False;True;0,768000125885;True;0,927999973297
AAF1997w;experiment;2017-04-24-14-40-01;9,0;7,0;100;2,0;0,0;3,0;1,0;column;0,0;True;False;True;0,832000017166;True;0,764999866486
AAF1997w;experiment;2017-04-24-14-40-01;9,0;8,0;100;2,0;1,0;3,0;0,0;column;0,0;True;False;True;0,799999952316;True;1,16199994087
AAF1997w;experiment;2017-04-24-14-40-01;9,0;9,0;100;3,0;2,0;1,0;0,0;row;1,0;False;False;False;0,667000055313;True;0,539999961853
AAF1997w;experiment;2017-04-24-14-40-01;9,0;10,0;100;1,0;0,0;2,0;3,0;column;0,0;True;False;True;0,799999952316;True;0,797000169754
AAF1997w;experiment;2017-04-24-14-40-01;9,0;11,0;100;3,0;0,0;2,0;1,0;column;1,0;False;False;False;0,702000141144;True;0,565999984741
AAF1997w;experiment;2017-04-24-14-40-01;9,0;12,0;100;0,0;3,0;2,0;1,0;row;1,0;False;False;False;0,900000095367;True;1,42900013924
AAF1997w;experiment;2017-04-24-14-40-01;9,0;13,0;100;2,0;1,0;3,0;0,0;row;1,0;True;True;True;1,0;True;0,796000003815
AAF1997w;experiment;2017-04-24-14-40-01;9,0;14,0;100;2,0;1,0;0,0;3,0;column;0,0;False;False;False;0,866999864578;True;0,754999876022
AAF1997w;experiment;2017-04-24-14-40-01;9,0;15,0;100;0,0;3,0;2,0;1,0;row;0,0;True;False;True;1,06500005722;True;1,46700000763
AAF1997w;experiment;2017-04-24-14-40-01;9,0;16,0;100;0,0;3,0;1,0;2,0;row;0,0;True;False;True;0,967000007629;True;1,40100002289
AAF1997w;experiment;2017-04-24-14-40-01;9,0;17,0;100;0,0;2,0;1,0;3,0;row;0,0;False;True;False;0,832999944687;True;0,601999998093
AAF1997w;experiment;2017-04-24-14-40-01;9,0;18,0;100;3,0;1,0;2,0;0,0;column;1,0;False;False;False;0,765999794006;True;1,29399991035
AAF1997w;experiment;2017-04-24-14-40-01;9,0;19,0;100;1,0;2,0;3,0;0,0;column;0,0;True;True;True;1,132999897;True;0,661000013351
AAF1997w;experiment;2017-04-24-14-40-01;9,0;20,0;100;2,0;3,0;0,0;1,0;column;1,0;False;False;False;1,83100008965;True;1,43799996376
AAF1997w;experiment;2017-04-24-14-40-01;9,0;21,0;100;0,0;2,0;1,0;3,0;column;1,0;False;True;False;1,06599998474;True;0,637000083923
AAF1997w;experiment;2017-04-24-14-40-01;9,0;22,0;100;3,0;1,0;2,0;0,0;column;0,0;False;True;False;0,933000087738;True;0,649999856949
AAF1997w;experiment;2017-04-24-14-40-01;9,0;23,0;100;1,0;3,0;2,0;0,0;row;0,0;True;False;True;0,900000095367;True;1,39600014687
AAF1997w;experiment;2017-04-24-14-40-01;9,0;24,0;100;0,0;2,0;1,0;3,0;row;1,0;True;False;True;1,23300004005;True;0,993999958038
AAF1997w;experiment;2017-04-24-14-40-01;9,0;25,0;100;1,0;0,0;3,0;2,0;column;1,0;True;True;True;1,03200006485;True;1,53099989891
AAF1997w;experiment;2017-04-24-14-40-01;9,0;26,0;100;1,0;2,0;0,0;3,0;row;0,0;True;False;True;0,799999952316;True;0,795000076294
AAF1997w;experiment;2017-04-24-14-40-01;9,0;27,0;100;1,0;2,0;0,0;3,0;row;0,0;False;False;False;0,832000017166;True;1,05900001526
AAF1997w;experiment;2017-04-24-14-40-01;9,0;28,0;100;2,0;3,0;0,0;1,0;row;1,0;True;False;True;0,934000015259;True;1,46299982071
AAF1997w;experiment;2017-04-24-14-40-01;9,0;29,0;100;0,0;1,0;2,0;3,0;row;1,0;True;True;True;0,832000017166;True;0,763999938965
AAF1997w;experiment;2017-04-24-14-40-01;9,0;30,0;100;2,0;0,0;1,0;3,0;row;0,0;True;False;True;0,967000007629;True;0,898000001907
AAF1997w;experiment;2017-04-24-14-40-01;9,0;31,0;100;0,0;1,0;3,0;2,0;column;0,0;False;True;False;0,901000022888;True;0,629999876022
AAF1997w;experiment;2017-04-24-14-40-01;9,0;32,0;100;0,0;1,0;2,0;3,0;column;1,0;False;True;False;1,03299999237;True;0,531000137329
AAF1997w;experiment;2017-04-24-14-40-01;9,0;33,0;100;2,0;0,0;3,0;1,0;row;0,0;False;False;False;1,06700015068;True;0,897000074387
AAF1997w;experiment;2017-04-24-14-40-01;9,0;34,0;100;0,0;3,0;2,0;1,0;column;0,0;True;True;True;0,700000047684;True;0,90499997139
AAF1997w;experiment;2017-04-24-14-40-01;9,0;35,0;100;3,0;2,0;0,0;1,0;column;0,0;False;False;False;0,699999809265;True;0,662000179291
AAF1997w;experiment;2017-04-24-14-40-01;9,0;36,0;100;0,0;3,0;2,0;1,0;column;0,0;False;True;False;1,03299999237;True;0,896000146866
AAF1997w;experiment;2017-04-24-14-40-01;9,0;37,0;100;1,0;0,0;3,0;2,0;column;1,0;False;False;False;1,03299999237;True;0,56500005722
AAF1997w;experiment;2017-04-24-14-40-01;9,0;38,0;100;1,0;2,0;3,0;0,0;column;1,0;False;False;False;0,934000015259;True;1,30400013924
AAF1997w;experiment;2017-04-24-14-40-01;9,0;39,0;100;1,0;3,0;2,0;0,0;column;0,0;True;False;True;0,766999959946;True;1,33499979973
AAF1997w;experiment;2017-04-24-14-40-01;9,0;40,0;100;2,0;3,0;1,0;0,0;column;0,0;False;False;False;0,633000135422;True;1,05499982834
AAF1997w;experiment;2017-04-24-14-40-01;9,0;41,0;100;0,0;1,0;2,0;3,0;column;0,0;True;True;False;0,866999864578;False;1,27499985695
AAF1997w;experiment;2017-04-24-14-40-01;9,0;42,0;100;2,0;1,0;3,0;0,0;row;0,0;False;False;False;0,900000095367;True;1,4960000515
AAF1997w;experiment;2017-04-24-14-40-01;9,0;43,0;100;1,0;0,0;2,0;3,0;row;1,0;False;True;False;1,33299994469;True;1,1360001564
AAF1997w;experiment;2017-04-24-14-40-01;9,0;44,0;100;0,0;1,0;2,0;3,0;row;0,0;False;True;False;0,799999952316;True;1,32999992371
AAF1997w;experiment;2017-04-24-14-40-01;9,0;45,0;100;1,0;0,0;2,0;3,0;row;0,0;True;False;True;0,730999946594;True;1,26799988747
AAF1997w;experiment;2017-04-24-14-40-01;9,0;46,0;100;3,0;2,0;0,0;1,0;row;1,0;True;False;True;0,733000040054;True;1,27300000191
AAF1997w;experiment;2017-04-24-14-40-01;9,0;47,0;100;3,0;0,0;1,0;2,0;column;0,0;False;True;False;0,932999849319;True;1,40400004387
AAF1997w;experiment;2017-04-24-14-40-01;9,0;48,0;100;0,0;3,0;2,0;1,0;row;0,0;False;False;False;0,832999944687;True;0,930000066757
AAF1997w;experiment;2017-04-24-14-40-01;10,0;1,0;-100;1,0;2,0;0,0;3,0;row;1,0;True;True;False;1,15000009537;False;0,861000061035
AAF1997w;experiment;2017-04-24-14-40-01;10,0;2,0;-100;3,0;0,0;2,0;1,0;column;1,0;True;False;False;0,950999975204;False;0,59500002861
AAF1997w;experiment;2017-04-24-14-40-01;10,0;3,0;-100;2,0;1,0;0,0;3,0;row;0,0;False;True;False;1,21700000763;True;1,32800006866
AAF1997w;experiment;2017-04-24-14-40-01;10,0;4,0;-100;3,0;1,0;0,0;2,0;row;1,0;True;True;True;0,649999856949;True;1,26300001144
AAF1997w;experiment;2017-04-24-14-40-01;10,0;5,0;-100;2,0;1,0;0,0;3,0;row;1,0;True;True;True;0,582999944687;True;1,49700021744
AAF1997w;experiment;2017-04-24-14-40-01;10,0;6,0;-100;3,0;2,0;1,0;0,0;column;0,0;False;True;False;0,75;True;1,30300021172
AAF1997w;experiment;2017-04-24-14-40-01;10,0;7,0;-100;3,0;2,0;1,0;0,0;column;0,0;True;True;True;0,682000160217;True;1,02800011635
AAF1997w;experiment;2017-04-24-14-40-01;10,0;8,0;-100;2,0;0,0;1,0;3,0;column;0,0;False;False;False;0,717000007629;True;1,39400005341
AAF1997w;experiment;2017-04-24-14-40-01;10,0;9,0;-100;0,0;2,0;1,0;3,0;row;1,0;True;False;True;1,11599993706;True;1,29299998283
AAF1997w;experiment;2017-04-24-14-40-01;10,0;10,0;-100;2,0;3,0;0,0;1,0;row;0,0;False;False;False;0,81500005722;True;1,43099999428
AAF1997w;experiment;2017-04-24-14-40-01;10,0;11,0;-100;2,0;3,0;1,0;0,0;column;0,0;True;True;True;0,683000087738;True;0,524000167847
AAF1997w;experiment;2017-04-24-14-40-01;10,0;12,0;-100;3,0;0,0;2,0;1,0;row;0,0;True;True;True;0,616999864578;True;0,696000099182
AAF1997w;experiment;2017-04-24-14-40-01;10,0;13,0;-100;2,0;1,0;0,0;3,0;column;1,0;True;True;True;0,882999897003;True;1,3900001049
AAF1997w;experiment;2017-04-24-14-40-01;10,0;14,0;-100;0,0;3,0;1,0;2,0;row;1,0;False;False;False;0,617000102997;True;1,19799995422
AAF1997w;experiment;2017-04-24-14-40-01;10,0;15,0;-100;1,0;0,0;2,0;3,0;row;0,0;False;True;False;0,682999849319;True;0,794999837875
AAF1997w;experiment;2017-04-24-14-40-01;10,0;16,0;-100;0,0;3,0;2,0;1,0;column;0,0;True;True;True;1,11800003052;True;0,962000131607
AAF1997w;experiment;2017-04-24-14-40-01;10,0;17,0;-100;3,0;0,0;1,0;2,0;row;1,0;False;False;False;0,717000007629;True;0,970999956131
AAF1997w;experiment;2017-04-24-14-40-01;10,0;18,0;-100;2,0;0,0;3,0;1,0;row;0,0;True;True;True;0,75;True;1,4279999733
AAF1997w;experiment;2017-04-24-14-40-01;10,0;19,0;-100;3,0;1,0;2,0;0,0;column;0,0;False;False;False;0,848999977112;True;0,59700012207
AAF1997w;experiment;2017-04-24-14-40-01;10,0;20,0;-100;1,0;0,0;2,0;3,0;column;0,0;False;True;False;1,01699995995;True;1,32100009918
AAF1997w;experiment;2017-04-24-14-40-01;10,0;21,0;-100;2,0;3,0;1,0;0,0;row;1,0;False;True;False;0,683000087738;True;1,26200008392
AAF1997w;experiment;2017-04-24-14-40-01;10,0;22,0;-100;0,0;1,0;3,0;2,0;row;0,0;True;True;True;0,719000101089;True;1,16799998283
AAF1997w;experiment;2017-04-24-14-40-01;10,0;23,0;-100;0,0;2,0;1,0;3,0;row;0,0;False;False;False;0,915999889374;True;1,29200005531
AAF1997w;experiment;2017-04-24-14-40-01;10,0;24,0;-100;3,0;0,0;1,0;2,0;row;0,0;False;True;False;0,75;True;1,40200018883
AAF1997w;experiment;2017-04-24-14-40-01;10,0;25,0;-100;1,0;3,0;0,0;2,0;column;1,0;True;True;False;0,649999856949;False;0,994999885559
AAF1997w;experiment;2017-04-24-14-40-01;10,0;26,0;-100;2,0;3,0;1,0;0,0;column;1,0;False;True;False;0,713999986649;True;0,726999998093
AAF1997w;experiment;2017-04-24-14-40-01;10,0;27,0;-100;2,0;1,0;3,0;0,0;row;0,0;True;True;True;0,714999914169;True;0,802000045776
AAF1997w;experiment;2017-04-24-14-40-01;10,0;28,0;-100;1,0;2,0;3,0;0,0;row;1,0;False;False;False;0,884000062943;True;0,727999925613
AAF1997w;experiment;2017-04-24-14-40-01;10,0;29,0;-100;2,0;3,0;0,0;1,0;column;0,0;False;False;False;0,848999977112;True;1,0640001297
AAF1997w;experiment;2017-04-24-14-40-01;10,0;30,0;-100;1,0;3,0;2,0;0,0;row;0,0;False;True;False;0,652000188828;True;1,16899991035
AAF1997w;experiment;2017-04-24-14-40-01;10,0;31,0;-100;3,0;1,0;0,0;2,0;row;1,0;False;False;False;0,584000110626;True;1,02699995041
AAF1997w;experiment;2017-04-24-14-40-01;10,0;32,0;-100;3,0;2,0;0,0;1,0;column;1,0;True;False;True;1,18400001526;True;0,839999914169
AAF1997w;experiment;2017-04-24-14-40-01;10,0;33,0;-100;3,0;2,0;0,0;1,0;column;1,0;False;False;False;0,849999904633;True;0,727999925613
AAF1997w;experiment;2017-04-24-14-40-01;10,0;34,0;-100;1,0;2,0;3,0;0,0;column;0,0;True;False;True;0,815999984741;True;0,954999923706
AAF1997w;experiment;2017-04-24-14-40-01;10,0;35,0;-100;0,0;3,0;1,0;2,0;column;1,0;False;True;False;0,650000095367;True;0,56299996376
AAF1997w;experiment;2017-04-24-14-40-01;10,0;36,0;-100;1,0;0,0;2,0;3,0;column;1,0;True;False;True;0,950000047684;True;0,555999994278
AAF1997w;experiment;2017-04-24-14-40-01;10,0;37,0;-100;3,0;0,0;1,0;2,0;row;0,0;True;True;True;0,917000055313;True;1,10299992561
AAF1997w;experiment;2017-04-24-14-40-01;10,0;38,0;-100;3,0;1,0;2,0;0,0;column;0,0;True;True;True;0,782999992371;True;0,856999874115
AAF1997w;experiment;2017-04-24-14-40-01;10,0;39,0;-100;0,0;1,0;2,0;3,0;column;1,0;True;False;True;0,683000087738;True;0,563999891281
AAF1997w;experiment;2017-04-24-14-40-01;10,0;40,0;-100;1,0;3,0;2,0;0,0;column;0,0;True;False;True;0,650000095367;True;1,38999986649
AAF1997w;experiment;2017-04-24-14-40-01;10,0;41,0;-100;1,0;0,0;3,0;2,0;column;0,0;False;False;False;0,717000007629;True;1,43000006676
AAF1997w;experiment;2017-04-24-14-40-01;10,0;42,0;-100;0,0;1,0;3,0;2,0;column;0,0;True;False;True;0,649999856949;True;1,0680000782
AAF1997w;experiment;2017-04-24-14-40-01;10,0;43,0;-100;1,0;3,0;0,0;2,0;row;1,0;False;True;False;0,915999889374;True;0,998000144958
AAF1997w;experiment;2017-04-24-14-40-01;10,0;44,0;-100;3,0;0,0;2,0;1,0;column;0,0;True;False;True;0,582999944687;True;1,43700003624
AAF1997w;experiment;2017-04-24-14-40-01;10,0;45,0;-100;1,0;3,0;2,0;0,0;column;1,0;False;False;False;0,650000095367;True;0,588999986649
AAF1997w;experiment;2017-04-24-14-40-01;10,0;46,0;-100;2,0;3,0;0,0;1,0;column;1,0;False;False;False;0,582999944687;True;0,59500002861
AAF1997w;experiment;2017-04-24-14-40-01;10,0;47,0;-100;3,0;1,0;0,0;2,0;row;0,0;True;False;True;0,716000080109;True;1,47099995613
AAF1997w;experiment;2017-04-24-14-40-01;10,0;48,0;-100;3,0;2,0;0,0;1,0;row;0,0;False;False;False;0,782999992371;True;0,733999967575
AAF1997w;experiment;2017-04-24-14-40-01;11,0;1,0;100;3,0;2,0;1,0;0,0;row;1,0;True;True;True;1,30100011826;True;0,603000164032
AAF1997w;experiment;2017-04-24-14-40-01;11,0;2,0;100;1,0;3,0;2,0;0,0;row;1,0;True;False;True;0,934000015259;True;1,12999987602
AAF1997w;experiment;2017-04-24-14-40-01;11,0;3,0;100;0,0;2,0;1,0;3,0;column;0,0;True;False;False;0,700000047684;False;0,867999792099
AAF1997w;experiment;2017-04-24-14-40-01;11,0;4,0;100;0,0;1,0;2,0;3,0;column;0,0;False;False;False;0,799000024796;True;1,20299983025
AAF1997w;experiment;2017-04-24-14-40-01;11,0;5,0;100;0,0;2,0;1,0;3,0;row;0,0;True;False;True;0,897000074387;True;0,569999933243
AAF1997w;experiment;2017-04-24-14-40-01;11,0;6,0;100;0,0;3,0;2,0;1,0;column;1,0;False;False;False;1,03699994087;True;0,602999925613
AAF1997w;experiment;2017-04-24-14-40-01;11,0;7,0;100;3,0;0,0;2,0;1,0;column;0,0;True;False;True;0,833999872208;True;1,09599995613
AAF1997w;experiment;2017-04-24-14-40-01;11,0;8,0;100;0,0;3,0;2,0;1,0;row;1,0;True;False;True;1,0;True;1,39400005341
AAF1997w;experiment;2017-04-24-14-40-01;11,0;9,0;100;3,0;2,0;0,0;1,0;column;1,0;False;True;False;0,832999944687;True;0,927999973297
AAF1997w;experiment;2017-04-24-14-40-01;11,0;10,0;100;0,0;1,0;3,0;2,0;column;0,0;True;False;True;0,799999952316;True;0,602999925613
AAF1997w;experiment;2017-04-24-14-40-01;11,0;11,0;100;3,0;2,0;1,0;0,0;column;1,0;False;True;False;0,932999849319;True;1,0649998188
AAF1997w;experiment;2017-04-24-14-40-01;11,0;12,0;100;2,0;1,0;3,0;0,0;column;0,0;False;True;False;0,833999872208;True;0,598000049591
AAF1997w;experiment;2017-04-24-14-40-01;11,0;13,0;100;3,0;0,0;2,0;1,0;column;0,0;False;False;False;0,667000055313;True;0,531999826431
AAF1997w;experiment;2017-04-24-14-40-01;11,0;14,0;100;0,0;2,0;3,0;1,0;row;0,0;True;True;True;1,03400015831;True;1,30100011826
AAF1997w;experiment;2017-04-24-14-40-01;11,0;15,0;100;2,0;3,0;0,0;1,0;row;0,0;True;False;True;1,06599998474;True;1,12600016594
AAF1997w;experiment;2017-04-24-14-40-01;11,0;16,0;100;3,0;1,0;0,0;2,0;column;0,0;True;False;True;0,733000040054;True;1,40300011635
AAF1997w;experiment;2017-04-24-14-40-01;11,0;17,0;100;3,0;1,0;2,0;0,0;row;1,0;True;True;True;0,934000015259;True;0,594000101089
AAF1997w;experiment;2017-04-24-14-40-01;11,0;18,0;100;2,0;0,0;1,0;3,0;row;1,0;True;True;True;0,667000055313;True;0,62700009346
AAF1997w;experiment;2017-04-24-14-40-01;11,0;19,0;100;0,0;1,0;2,0;3,0;row;1,0;False;True;False;0,598999977112;True;1,26399993896
AAF1997w;experiment;2017-04-24-14-40-01;11,0;20,0;100;1,0;2,0;0,0;3,0;row;1,0;False;False;False;0,799999952316;True;0,596999883652
AAF1997w;experiment;2017-04-24-14-40-01;11,0;21,0;100;0,0;2,0;3,0;1,0;column;1,0;True;False;False;0,599999904633;False;0,556999921799
AAF1997w;experiment;2017-04-24-14-40-01;11,0;22,0;100;2,0;3,0;0,0;1,0;column;0,0;False;False;False;0,700000047684;True;0,994999885559
AAF1997w;experiment;2017-04-24-14-40-01;11,0;23,0;100;2,0;1,0;0,0;3,0;row;1,0;False;False;False;0,733000040054;True;0,860999822617
AAF1997w;experiment;2017-04-24-14-40-01;11,0;24,0;100;2,0;1,0;3,0;0,0;row;1,0;False;False;False;1,00099992752;True;0,763000011444
AAF1997w;experiment;2017-04-24-14-40-01;11,0;25,0;100;3,0;1,0;0,0;2,0;row;1,0;True;False;True;0,766000032425;True;1,12800002098
AAF1997w;experiment;2017-04-24-14-40-01;11,0;26,0;100;1,0;0,0;3,0;2,0;row;1,0;False;True;False;0,832999944687;True;1,05999994278
AAF1997w;experiment;2017-04-24-14-40-01;11,0;27,0;100;1,0;0,0;3,0;2,0;row;1,0;True;True;True;0,631999969482;True;0,641999959946
AAF1997w;experiment;2017-04-24-14-40-01;11,0;28,0;100;1,0;2,0;3,0;0,0;row;1,0;False;True;False;0,833999872208;True;1,03800010681
AAF1997w;experiment;2017-04-24-14-40-01;11,0;29,0;100;1,0;0,0;3,0;2,0;row;0,0;False;False;False;0,733000040054;True;0,960000038147
AAF1997w;experiment;2017-04-24-14-40-01;11,0;30,0;100;0,0;2,0;1,0;3,0;column;1,0;True;True;False;1,03299999237;False;1,06500005722
AAF1997w;experiment;2017-04-24-14-40-01;11,0;31,0;100;1,0;3,0;0,0;2,0;row;1,0;False;True;False;1,23399996758;True;1,09599995613
AAF1997w;experiment;2017-04-24-14-40-01;11,0;32,0;100;3,0;0,0;1,0;2,0;row;1,0;False;True;False;0,898999929428;True;0,605000019073
AAF1997w;experiment;2017-04-24-14-40-01;11,0;33,0;100;0,0;2,0;3,0;1,0;column;1,0;False;True;False;1,23399996758;True;0,798000097275
AAF1997w;experiment;2017-04-24-14-40-01;11,0;34,0;100;0,0;3,0;2,0;1,0;column;1,0;True;True;True;1,06599998474;True;1,26900005341
AAF1997w;experiment;2017-04-24-14-40-01;11,0;35,0;100;1,0;3,0;2,0;0,0;row;0,0;False;True;False;1,23399996758;True;0,569000005722
AAF1997w;experiment;2017-04-24-14-40-01;11,0;36,0;100;2,0;3,0;1,0;0,0;row;1,0;True;True;True;0,866999864578;True;0,632999897003
AAF1997w;experiment;2017-04-24-14-40-01;11,0;37,0;100;2,0;1,0;0,0;3,0;row;0,0;True;False;False;0,866999864578;False;1,32899999619
AAF1997w;experiment;2017-04-24-14-40-01;11,0;38,0;100;1,0;0,0;2,0;3,0;row;1,0;True;False;True;0,867000102997;True;1,10300016403
AAF1997w;experiment;2017-04-24-14-40-01;11,0;39,0;100;0,0;3,0;1,0;2,0;column;1,0;True;False;True;1,23400020599;True;1,22900009155
AAF1997w;experiment;2017-04-24-14-40-01;11,0;40,0;100;2,0;3,0;1,0;0,0;row;1,0;False;False;False;0,799999952316;True;0,771999835968
AAF1997w;experiment;2017-04-24-14-40-01;11,0;41,0;100;0,0;1,0;3,0;2,0;column;1,0;True;False;False;0,967000007629;False;1,16499996185
AAF1997w;experiment;2017-04-24-14-40-01;11,0;42,0;100;3,0;0,0;1,0;2,0;row;1,0;True;False;True;0,900000095367;True;0,727999925613
AAF1997w;experiment;2017-04-24-14-40-01;11,0;43,0;100;0,0;2,0;3,0;1,0;column;0,0;False;False;False;0,900000095367;True;1,52499985695
AAF1997w;experiment;2017-04-24-14-40-01;11,0;44,0;100;2,0;0,0;1,0;3,0;column;0,0;True;False;True;1,0;True;0,732000112534
AAF1997w;experiment;2017-04-24-14-40-01;11,0;45,0;100;1,0;2,0;3,0;0,0;row;0,0;True;False;True;1,03400015831;True;0,559000015259
AAF1997w;experiment;2017-04-24-14-40-01;11,0;46,0;100;2,0;1,0;0,0;3,0;column;0,0;True;False;True;0,900000095367;True;0,965000152588
AAF1997w;experiment;2017-04-24-14-40-01;11,0;47,0;100;1,0;2,0;3,0;0,0;row;0,0;False;True;False;1,03200006485;True;1,33100008965
AAF1997w;experiment;2017-04-24-14-40-01;11,0;48,0;100;3,0;2,0;0,0;1,0;row;0,0;False;False;False;1,03399991989;True;0,671000003815
AAF1997w;experiment;2017-04-24-14-40-01;12,0;1,0;1000;3,0;2,0;1,0;0,0;column;1,0;False;False;False;0,732999801636;True;1,46800017357
AAF1997w;experiment;2017-04-24-14-40-01;12,0;2,0;1000;3,0;0,0;1,0;2,0;column;0,0;True;False;True;1,23300004005;True;1,42899990082
AAF1997w;experiment;2017-04-24-14-40-01;12,0;3,0;1000;3,0;0,0;1,0;2,0;row;1,0;False;True;False;0,898999929428;True;0,68799996376
AAF1997w;experiment;2017-04-24-14-40-01;12,0;4,0;1000;0,0;3,0;2,0;1,0;row;1,0;True;False;True;0,833000183105;True;0,761999845505
AAF1997w;experiment;2017-04-24-14-40-01;12,0;5,0;1000;1,0;3,0;2,0;0,0;column;0,0;False;False;False;1,13400006294;True;1,30500006676
AAF1997w;experiment;2017-04-24-14-40-01;12,0;6,0;1000;2,0;1,0;3,0;0,0;row;1,0;True;True;True;0,799999952316;True;1,22900009155
AAF1997w;experiment;2017-04-24-14-40-01;12,0;7,0;1000;0,0;2,0;1,0;3,0;row;0,0;False;True;False;0,933000087738;True;1,02999997139
AAF1997w;experiment;2017-04-24-14-40-01;12,0;8,0;1000;1,0;3,0;0,0;2,0;row;1,0;True;False;True;0,967000007629;True;1,32699990273
AAF1997w;experiment;2017-04-24-14-40-01;12,0;9,0;1000;0,0;2,0;3,0;1,0;row;1,0;False;True;False;0,832999944687;True;1,30100011826
AAF1997w;experiment;2017-04-24-14-40-01;12,0;10,0;1000;2,0;0,0;1,0;3,0;column;0,0;False;False;False;1,16700005531;True;1,47100019455
AAF1997w;experiment;2017-04-24-14-40-01;12,0;11,0;1000;0,0;2,0;1,0;3,0;row;0,0;True;False;True;1,16600012779;True;1,29600000381
AAF1997w;experiment;2017-04-24-14-40-01;12,0;12,0;1000;2,0;3,0;1,0;0,0;column;0,0;False;True;False;1,00100016594;True;1,45900011063
AAF1997w;experiment;2017-04-24-14-40-01;12,0;13,0;1000;3,0;2,0;1,0;0,0;row;1,0;True;False;True;1,53299999237;True;0,699999809265
AAF1997w;experiment;2017-04-24-14-40-01;12,0;14,0;1000;1,0;0,0;2,0;3,0;row;0,0;True;False;True;1,132999897;True;0,796000003815
AAF1997w;experiment;2017-04-24-14-40-01;12,0;15,0;1000;2,0;3,0;1,0;0,0;column;1,0;False;False;False;0,865999937057;True;1,30199980736
AAF1997w;experiment;2017-04-24-14-40-01;12,0;16,0;1000;3,0;1,0;2,0;0,0;row;0,0;True;True;True;1,19900012016;True;0,769999980927
AAF1997w;experiment;2017-04-24-14-40-01;12,0;17,0;1000;3,0;2,0;0,0;1,0;row;1,0;True;False;True;1,43300008774;True;1,32800006866
AAF1997w;experiment;2017-04-24-14-40-01;12,0;18,0;1000;3,0;1,0;0,0;2,0;row;1,0;False;True;False;0,766000032425;True;0,888000011444
AAF1997w;experiment;2017-04-24-14-40-01;12,0;19,0;1000;3,0;0,0;2,0;1,0;row;1,0;True;True;True;0,833999872208;True;0,923000097275
AAF1997w;experiment;2017-04-24-14-40-01;12,0;20,0;1000;2,0;3,0;1,0;0,0;row;0,0;True;True;True;0,899000167847;True;0,796999931335
AAF1997w;experiment;2017-04-24-14-40-01;12,0;21,0;1000;3,0;2,0;0,0;1,0;row;0,0;True;False;True;1,0;True;0,795999765396
AAF1997w;experiment;2017-04-24-14-40-01;12,0;22,0;1000;3,0;1,0;0,0;2,0;column;1,0;False;False;False;0,865000009537;True;1,06699991226
AAF1997w;experiment;2017-04-24-14-40-01;12,0;23,0;1000;2,0;1,0;3,0;0,0;column;0,0;True;True;True;0,866000175476;True;1,46700000763
AAF1997w;experiment;2017-04-24-14-40-01;12,0;24,0;1000;3,0;0,0;1,0;2,0;column;1,0;False;True;False;0,865999937057;True;0,828999996185
AAF1997w;experiment;2017-04-24-14-40-01;12,0;25,0;1000;0,0;2,0;1,0;3,0;column;1,0;True;True;True;1,0;True;0,635999917984
AAF1997w;experiment;2017-04-24-14-40-01;12,0;26,0;1000;2,0;3,0;0,0;1,0;row;0,0;True;False;True;0,968000173569;True;0,526000022888
AAF1997w;experiment;2017-04-24-14-40-01;12,0;27,0;1000;2,0;1,0;3,0;0,0;row;0,0;True;True;False;0,964999914169;False;1,49400019646
AAF1997w;experiment;2017-04-24-14-40-01;12,0;28,0;1000;3,0;0,0;2,0;1,0;row;0,0;True;True;True;1,0;True;1,17100000381
AAF1997w;experiment;2017-04-24-14-40-01;12,0;29,0;1000;0,0;2,0;3,0;1,0;column;1,0;False;True;False;0,967000007629;True;1,09999990463
AAF1997w;experiment;2017-04-24-14-40-01;12,0;30,0;1000;3,0;1,0;0,0;2,0;column;1,0;True;False;True;0,898999929428;True;0,896000146866
AAF1997w;experiment;2017-04-24-14-40-01;12,0;31,0;1000;3,0;0,0;2,0;1,0;column;1,0;False;True;False;0,932999849319;True;1,33699989319
AAF1997w;experiment;2017-04-24-14-40-01;12,0;32,0;1000;1,0;0,0;2,0;3,0;row;1,0;True;False;False;0,898999929428;False;0,59500002861
AAF1997w;experiment;2017-04-24-14-40-01;12,0;33,0;1000;3,0;2,0;1,0;0,0;column;0,0;True;False;True;1,06599998474;True;1,0
AAF1997w;experiment;2017-04-24-14-40-01;12,0;34,0;1000;1,0;0,0;2,0;3,0;column;0,0;True;True;True;1,0;True;0,972999811172
AAF1997w;experiment;2017-04-24-14-40-01;12,0;35,0;1000;3,0;1,0;0,0;2,0;row;1,0;True;False;True;1,0;True;0,530000209808
AAF1997w;experiment;2017-04-24-14-40-01;12,0;36,0;1000;2,0;0,0;3,0;1,0;column;0,0;False;True;False;1,0;True;0,726000070572
AAF1997w;experiment;2017-04-24-14-40-01;12,0;37,0;1000;2,0;3,0;0,0;1,0;column;1,0;True;True;True;1,06699991226;True;1,40400004387
AAF1997w;experiment;2017-04-24-14-40-01;12,0;38,0;1000;0,0;2,0;3,0;1,0;column;1,0;True;False;False;1,06699991226;False;0,903000116348
AAF1997w;experiment;2017-04-24-14-40-01;12,0;39,0;1000;2,0;1,0;3,0;0,0;row;1,0;False;False;False;1,5640001297;True;0,731000185013
AAF1997w;experiment;2017-04-24-14-40-01;12,0;40,0;1000;0,0;3,0;2,0;1,0;column;0,0;True;True;True;1,39999985695;True;1,02900004387
AAF1997w;experiment;2017-04-24-14-40-01;12,0;41,0;1000;2,0;0,0;1,0;3,0;row;1,0;False;True;False;1,06599998474;True;1,40000009537
AAF1997w;experiment;2017-04-24-14-40-01;12,0;42,0;1000;3,0;0,0;2,0;1,0;row;1,0;False;True;False;1,26699995995;True;1,46799993515
AAF1997w;experiment;2017-04-24-14-40-01;12,0;43,0;1000;2,0;1,0;0,0;3,0;column;1,0;True;False;False;1,0;False;0,721999883652
AAF1997w;experiment;2017-04-24-14-40-01;12,0;44,0;1000;2,0;0,0;1,0;3,0;row;0,0;False;True;False;1,20000004768;True;1,3259999752
AAF1997w;experiment;2017-04-24-14-40-01;12,0;45,0;1000;0,0;2,0;3,0;1,0;row;0,0;False;False;False;0,933000087738;True;1,29500007629
AAF1997w;experiment;2017-04-24-14-40-01;12,0;46,0;1000;1,0;2,0;3,0;0,0;row;0,0;False;True;False;1,26699995995;True;0,871000051498
AAF1997w;experiment;2017-04-24-14-40-01;12,0;47,0;1000;1,0;2,0;0,0;3,0;row;0,0;False;False;False;1,33300018311;True;0,630999803543
AAF1997w;experiment;2017-04-24-14-40-01;12,0;48,0;1000;1,0;2,0;0,0;3,0;column;1,0;False;False;False;1,59899997711;True;1,27200007439
