Observer;Condition;SessionID;Block;Trial;COA;Color0;Color1;Color2;Color3;Target;Which;Match;FlipComplimentary;Response;RT;Correct;OnsetDelay
ABH1987w;experiment;2017-03-28-12-08-25;1,0;1,0;-100;1,0;2,0;0,0;3,0;column;1,0;False;False;False;2,617000103;True;1,20000004768
ABH1987w;experiment;2017-03-28-12-08-25;1,0;2,0;-100;0,0;3,0;2,0;1,0;column;0,0;False;False;False;2,34999990463;True;1,23399996758
ABH1987w;experiment;2017-03-28-12-08-25;1,0;3,0;-100;0,0;2,0;1,0;3,0;row;1,0;False;False;False;4,55100011826;True;0,604000091553
ABH1987w;experiment;2017-03-28-12-08-25;1,0;4,0;-100;1,0;0,0;3,0;2,0;row;1,0;False;True;False;4,04999995232;True;1,49399995804
ABH1987w;experiment;2017-03-28-12-08-25;1,0;5,0;-100;2,0;1,0;3,0;0,0;row;1,0;False;True;False;4,51799988747;True;0,936000108719
ABH1987w;experiment;2017-03-28-12-08-25;1,0;6,0;-100;0,0;2,0;3,0;1,0;row;0,0;False;True;False;3,35000014305;True;1,13399982452
ABH1987w;experiment;2017-03-28-12-08-25;1,0;7,0;-100;1,0;0,0;2,0;3,0;row;0,0;True;False;True;1,51699995995;True;1,4359998703
ABH1987w;experiment;2017-03-28-12-08-25;1,0;8,0;-100;2,0;1,0;3,0;0,0;column;1,0;False;True;False;2,45000004768;True;0,961999893188
ABH1987w;experiment;2017-03-28-12-08-25;1,0;9,0;-100;2,0;3,0;1,0;0,0;row;1,0;False;True;False;3,11699986458;True;0,968000173569
ABH1987w;experiment;2017-03-28-12-08-25;1,0;10,0;-100;1,0;3,0;0,0;2,0;column;0,0;True;True;True;2,04999995232;True;1,46700000763
ABH1987w;experiment;2017-03-28-12-08-25;1,0;11,0;-100;2,0;1,0;0,0;3,0;row;0,0;True;True;True;1,617000103;True;0,931999921799
ABH1987w;experiment;2017-03-28-12-08-25;1,0;12,0;-100;0,0;1,0;3,0;2,0;column;0,0;False;True;False;2,71799993515;True;0,897000074387
ABH1987w;experiment;2017-03-28-12-08-25;1,0;13,0;-100;2,0;0,0;3,0;1,0;column;0,0;True;False;True;1,45000004768;True;0,893000125885
ABH1987w;experiment;2017-03-28-12-08-25;1,0;14,0;-100;3,0;1,0;0,0;2,0;column;1,0;False;False;False;2,68299984932;True;0,973000049591
ABH1987w;experiment;2017-03-28-12-08-25;1,0;15,0;-100;2,0;1,0;3,0;0,0;column;0,0;False;True;False;2,38399982452;True;0,964999914169
ABH1987w;experiment;2017-03-28-12-08-25;1,0;16,0;-100;3,0;0,0;1,0;2,0;row;1,0;True;False;True;1,8820002079;True;1,02600002289
ABH1987w;experiment;2017-03-28-12-08-25;1,0;17,0;-100;1,0;0,0;3,0;2,0;column;0,0;False;False;False;2,38300013542;True;0,698999881744
ABH1987w;experiment;2017-03-28-12-08-25;1,0;18,0;-100;3,0;0,0;1,0;2,0;column;1,0;False;True;False;2,51399993896;True;1,22399997711
ABH1987w;experiment;2017-03-28-12-08-25;1,0;19,0;-100;3,0;1,0;0,0;2,0;column;0,0;True;True;True;1,6850001812;True;1,26800012589
ABH1987w;experiment;2017-03-28-12-08-25;1,0;20,0;-100;2,0;1,0;3,0;0,0;row;0,0;True;True;True;1,95000004768;True;0,961999893188
ABH1987w;experiment;2017-03-28-12-08-25;1,0;21,0;-100;3,0;0,0;2,0;1,0;column;0,0;True;False;True;1,51700019836;True;1,03699994087
ABH1987w;experiment;2017-03-28-12-08-25;1,0;22,0;-100;1,0;3,0;0,0;2,0;row;1,0;False;False;False;2,1819999218;True;0,960999965668
ABH1987w;experiment;2017-03-28-12-08-25;1,0;23,0;-100;1,0;3,0;2,0;0,0;column;0,0;True;False;True;1,51699995995;True;0,963000059128
ABH1987w;experiment;2017-03-28-12-08-25;1,0;24,0;-100;0,0;2,0;3,0;1,0;column;0,0;True;True;False;1,81700015068;False;1,2610001564
ABH1987w;experiment;2017-03-28-12-08-25;1,0;25,0;-100;2,0;3,0;0,0;1,0;column;0,0;False;False;False;1,58200001717;True;1,47099995613
ABH1987w;experiment;2017-03-28-12-08-25;1,0;26,0;-100;1,0;0,0;2,0;3,0;column;0,0;True;False;True;2,31700015068;True;1,36699986458
ABH1987w;experiment;2017-03-28-12-08-25;1,0;27,0;-100;1,0;2,0;3,0;0,0;row;1,0;False;True;False;2,38400006294;True;1,38999986649
ABH1987w;experiment;2017-03-28-12-08-25;1,0;28,0;-100;3,0;1,0;2,0;0,0;row;1,0;False;True;True;1,54800009727;False;0,56200003624
ABH1987w;experiment;2017-03-28-12-08-25;1,0;29,0;-100;0,0;3,0;1,0;2,0;row;0,0;False;True;True;1,58400011063;False;0,960999965668
ABH1987w;experiment;2017-03-28-12-08-25;1,0;30,0;-100;2,0;3,0;0,0;1,0;row;0,0;True;True;False;1,84899997711;False;0,957000017166
ABH1987w;experiment;2017-03-28-12-08-25;1,0;31,0;-100;3,0;1,0;2,0;0,0;column;0,0;True;True;True;1,38400006294;True;0,891999959946
ABH1987w;experiment;2017-03-28-12-08-25;1,0;32,0;-100;1,0;3,0;2,0;0,0;row;1,0;True;True;False;1,58299994469;False;1,30400013924
ABH1987w;experiment;2017-03-28-12-08-25;1,0;33,0;-100;1,0;2,0;0,0;3,0;row;0,0;False;True;False;1,71600008011;True;1,39800000191
ABH1987w;experiment;2017-03-28-12-08-25;1,0;34,0;-100;3,0;0,0;2,0;1,0;row;0,0;False;False;True;1,61599993706;False;1,03399991989
ABH1987w;experiment;2017-03-28-12-08-25;1,0;35,0;-100;1,0;0,0;2,0;3,0;column;1,0;True;False;True;1,18099999428;True;1,06200003624
ABH1987w;experiment;2017-03-28-12-08-25;1,0;36,0;-100;3,0;2,0;1,0;0,0;row;1,0;False;True;False;1,48299980164;True;0,898000001907
ABH1987w;experiment;2017-03-28-12-08-25;1,0;37,0;-100;0,0;2,0;3,0;1,0;row;1,0;False;False;True;1,54699993134;False;1,34000015259
ABH1987w;experiment;2017-03-28-12-08-25;1,0;38,0;-100;0,0;2,0;1,0;3,0;row;0,0;False;True;True;1,55100011826;False;0,531999826431
ABH1987w;experiment;2017-03-28-12-08-25;1,0;39,0;-100;1,0;3,0;0,0;2,0;column;0,0;False;False;False;1,65100002289;True;0,634999990463
ABH1987w;experiment;2017-03-28-12-08-25;1,0;40,0;-100;0,0;1,0;2,0;3,0;row;0,0;True;True;True;1,01699995995;True;0,655999898911
ABH1987w;experiment;2017-03-28-12-08-25;1,0;41,0;-100;0,0;1,0;2,0;3,0;column;1,0;True;False;False;1,41700005531;False;1,46799993515
ABH1987w;experiment;2017-03-28-12-08-25;1,0;42,0;-100;2,0;3,0;1,0;0,0;column;1,0;False;False;False;1,71700000763;True;0,823000192642
ABH1987w;experiment;2017-03-28-12-08-25;1,0;43,0;-100;0,0;1,0;3,0;2,0;row;1,0;False;True;True;2,38400006294;False;1,27300000191
ABH1987w;experiment;2017-03-28-12-08-25;1,0;44,0;-100;0,0;3,0;2,0;1,0;row;1,0;True;False;False;3,21700000763;False;1,06999993324
ABH1987w;experiment;2017-03-28-12-08-25;1,0;45,0;-100;2,0;3,0;0,0;1,0;row;1,0;True;False;False;1,68300008774;False;0,799000024796
ABH1987w;experiment;2017-03-28-12-08-25;1,0;46,0;-100;1,0;2,0;3,0;0,0;column;1,0;True;True;True;1,48399996758;True;0,769999980927
ABH1987w;experiment;2017-03-28-12-08-25;1,0;47,0;-100;3,0;2,0;0,0;1,0;column;0,0;False;False;True;1,61600017548;False;1,10599994659
ABH1987w;experiment;2017-03-28-12-08-25;1,0;48,0;-100;2,0;1,0;0,0;3,0;column;1,0;False;True;False;1,44699978828;True;0,631999969482
ABH1987w;experiment;2017-03-28-12-08-25;2,0;1,0;100;0,0;2,0;3,0;1,0;row;1,0;True;False;False;1,5;False;0,802999973297
ABH1987w;experiment;2017-03-28-12-08-25;2,0;2,0;100;3,0;2,0;1,0;0,0;column;0,0;True;True;True;1,79999995232;True;0,600000143051
ABH1987w;experiment;2017-03-28-12-08-25;2,0;3,0;100;0,0;3,0;1,0;2,0;column;0,0;False;True;True;1,83400011063;False;0,829999923706
ABH1987w;experiment;2017-03-28-12-08-25;2,0;4,0;100;2,0;3,0;0,0;1,0;column;1,0;True;False;False;1,76699995995;False;1,09299993515
ABH1987w;experiment;2017-03-28-12-08-25;2,0;5,0;100;2,0;0,0;3,0;1,0;column;0,0;False;False;False;1,13400006294;True;1,40100002289
ABH1987w;experiment;2017-03-28-12-08-25;2,0;6,0;100;3,0;2,0;0,0;1,0;column;1,0;False;True;True;2,33299994469;False;0,770999908447
ABH1987w;experiment;2017-03-28-12-08-25;2,0;7,0;100;2,0;3,0;0,0;1,0;column;1,0;False;True;False;1,96500015259;True;1,49699997902
ABH1987w;experiment;2017-03-28-12-08-25;2,0;8,0;100;1,0;0,0;3,0;2,0;row;1,0;True;True;True;1,89999985695;True;0,99599981308
ABH1987w;experiment;2017-03-28-12-08-25;2,0;9,0;100;0,0;2,0;1,0;3,0;column;0,0;True;True;False;1,867000103;False;0,835999965668
ABH1987w;experiment;2017-03-28-12-08-25;2,0;10,0;100;0,0;1,0;3,0;2,0;column;1,0;True;True;False;1,93300008774;False;1,22799992561
ABH1987w;experiment;2017-03-28-12-08-25;2,0;11,0;100;1,0;3,0;2,0;0,0;row;0,0;True;True;True;1,36699986458;True;1,09600019455
ABH1987w;experiment;2017-03-28-12-08-25;2,0;12,0;100;2,0;0,0;3,0;1,0;column;0,0;True;True;True;1,867000103;True;0,865999937057
ABH1987w;experiment;2017-03-28-12-08-25;2,0;13,0;100;2,0;3,0;1,0;0,0;column;0,0;False;True;False;1,76800012589;True;1,36500000954
ABH1987w;experiment;2017-03-28-12-08-25;2,0;14,0;100;2,0;1,0;0,0;3,0;row;0,0;True;False;True;1,36699986458;True;1,1289999485
ABH1987w;experiment;2017-03-28-12-08-25;2,0;15,0;100;1,0;3,0;0,0;2,0;column;0,0;False;True;False;2,0;True;1,33200001717
ABH1987w;experiment;2017-03-28-12-08-25;2,0;16,0;100;1,0;2,0;3,0;0,0;column;1,0;False;False;True;2,93299984932;False;1,36800003052
ABH1987w;experiment;2017-03-28-12-08-25;2,0;17,0;100;1,0;3,0;0,0;2,0;column;1,0;False;False;False;2,39999985695;True;1,03500008583
ABH1987w;experiment;2017-03-28-12-08-25;2,0;18,0;100;0,0;2,0;3,0;1,0;column;1,0;True;True;True;2,632999897;True;1,36100006104
ABH1987w;experiment;2017-03-28-12-08-25;2,0;19,0;100;0,0;1,0;3,0;2,0;column;0,0;False;True;False;1,33299994469;True;1,49300003052
ABH1987w;experiment;2017-03-28-12-08-25;2,0;20,0;100;2,0;1,0;3,0;0,0;row;1,0;True;True;False;1,33500003815;False;1,39299988747
ABH1987w;experiment;2017-03-28-12-08-25;2,0;21,0;100;3,0;2,0;0,0;1,0;column;0,0;False;False;False;1,83400011063;True;1,10099983215
ABH1987w;experiment;2017-03-28-12-08-25;2,0;22,0;100;2,0;1,0;3,0;0,0;row;1,0;False;False;True;1,5;False;0,538000106812
ABH1987w;experiment;2017-03-28-12-08-25;2,0;23,0;100;0,0;2,0;3,0;1,0;row;1,0;False;True;False;1,40000009537;True;1,0039999485
ABH1987w;experiment;2017-03-28-12-08-25;2,0;24,0;100;3,0;2,0;1,0;0,0;row;1,0;True;True;True;1,40100002289;True;1,0720000267
ABH1987w;experiment;2017-03-28-12-08-25;2,0;25,0;100;3,0;2,0;0,0;1,0;row;1,0;True;True;True;1,26600003242;True;1,45700001717
ABH1987w;experiment;2017-03-28-12-08-25;2,0;26,0;100;0,0;2,0;1,0;3,0;column;0,0;False;False;False;1,46600008011;True;0,868000030518
ABH1987w;experiment;2017-03-28-12-08-25;2,0;27,0;100;1,0;0,0;2,0;3,0;row;1,0;True;True;True;1,00099992752;True;1,03900003433
ABH1987w;experiment;2017-03-28-12-08-25;2,0;28,0;100;1,0;0,0;3,0;2,0;column;0,0;True;True;True;1,36599993706;True;1,16700005531
ABH1987w;experiment;2017-03-28-12-08-25;2,0;29,0;100;3,0;0,0;1,0;2,0;column;0,0;False;True;False;0,963000059128;True;1,29399991035
ABH1987w;experiment;2017-03-28-12-08-25;2,0;30,0;100;0,0;1,0;2,0;3,0;column;0,0;False;True;False;1,56599998474;True;0,93700003624
ABH1987w;experiment;2017-03-28-12-08-25;2,0;31,0;100;3,0;2,0;0,0;1,0;row;0,0;True;False;False;1,56699991226;False;1,29699993134
ABH1987w;experiment;2017-03-28-12-08-25;2,0;32,0;100;0,0;3,0;2,0;1,0;column;1,0;False;False;True;1,63300013542;False;1,49799990654
ABH1987w;experiment;2017-03-28-12-08-25;2,0;33,0;100;2,0;3,0;0,0;1,0;column;0,0;False;True;False;2,26699995995;True;1,50200009346
ABH1987w;experiment;2017-03-28-12-08-25;2,0;34,0;100;2,0;3,0;1,0;0,0;column;1,0;True;False;True;2,0;True;1,33500003815
ABH1987w;experiment;2017-03-28-12-08-25;2,0;35,0;100;2,0;0,0;1,0;3,0;column;1,0;True;True;True;1,53299999237;True;1,33200001717
ABH1987w;experiment;2017-03-28-12-08-25;2,0;36,0;100;3,0;1,0;0,0;2,0;row;0,0;False;True;False;1,19899988174;True;1,26200008392
ABH1987w;experiment;2017-03-28-12-08-25;2,0;37,0;100;1,0;2,0;0,0;3,0;row;0,0;False;False;False;1,33300018311;True;0,871000051498
ABH1987w;experiment;2017-03-28-12-08-25;2,0;38,0;100;2,0;0,0;1,0;3,0;column;0,0;True;False;True;0,833999872208;True;0,835999965668
ABH1987w;experiment;2017-03-28-12-08-25;2,0;39,0;100;1,0;3,0;2,0;0,0;row;0,0;False;True;True;1,16700005531;False;0,629999876022
ABH1987w;experiment;2017-03-28-12-08-25;2,0;40,0;100;1,0;0,0;2,0;3,0;row;0,0;True;True;True;1,40000009537;True;0,528000116348
ABH1987w;experiment;2017-03-28-12-08-25;2,0;41,0;100;3,0;1,0;0,0;2,0;column;0,0;True;False;False;1,13300013542;False;0,605000019073
ABH1987w;experiment;2017-03-28-12-08-25;2,0;42,0;100;2,0;1,0;0,0;3,0;row;0,0;False;False;True;1,86600017548;False;1,36899995804
ABH1987w;experiment;2017-03-28-12-08-25;2,0;43,0;100;1,0;3,0;2,0;0,0;row;1,0;True;False;False;1,79999995232;False;0,603000164032
ABH1987w;experiment;2017-03-28-12-08-25;2,0;44,0;100;0,0;3,0;1,0;2,0;column;1,0;False;True;False;1,70000004768;True;0,628000020981
ABH1987w;experiment;2017-03-28-12-08-25;2,0;45,0;100;1,0;0,0;2,0;3,0;column;1,0;True;False;True;0,900000095367;True;0,861000061035
ABH1987w;experiment;2017-03-28-12-08-25;2,0;46,0;100;3,0;0,0;1,0;2,0;column;0,0;True;True;True;1,56799983978;True;1,06299996376
ABH1987w;experiment;2017-03-28-12-08-25;2,0;47,0;100;1,0;0,0;2,0;3,0;column;1,0;False;False;True;1,5649998188;False;1,06699991226
ABH1987w;experiment;2017-03-28-12-08-25;2,0;48,0;100;3,0;1,0;2,0;0,0;column;1,0;False;True;True;1,83300018311;False;0,897000074387
ABH1987w;experiment;2017-03-28-12-08-25;3,0;1,0;1000;0,0;2,0;3,0;1,0;row;0,0;True;False;True;1,49799990654;True;1,39499998093
ABH1987w;experiment;2017-03-28-12-08-25;3,0;2,0;1000;2,0;3,0;1,0;0,0;row;1,0;True;False;False;1,36600017548;False;0,960000038147
ABH1987w;experiment;2017-03-28-12-08-25;3,0;3,0;1000;3,0;1,0;2,0;0,0;row;1,0;False;False;False;1,43300008774;True;0,535000085831
ABH1987w;experiment;2017-03-28-12-08-25;3,0;4,0;1000;2,0;3,0;1,0;0,0;column;0,0;False;True;True;2,0680000782;False;0,566999912262
ABH1987w;experiment;2017-03-28-12-08-25;3,0;5,0;1000;2,0;0,0;1,0;3,0;column;1,0;True;True;False;2,0;False;0,759999990463
ABH1987w;experiment;2017-03-28-12-08-25;3,0;6,0;1000;1,0;2,0;0,0;3,0;column;0,0;False;False;True;2,46600008011;False;1,03600001335
ABH1987w;experiment;2017-03-28-12-08-25;3,0;7,0;1000;1,0;0,0;3,0;2,0;column;0,0;False;False;True;2,39900016785;False;0,628000020981
ABH1987w;experiment;2017-03-28-12-08-25;3,0;8,0;1000;1,0;0,0;3,0;2,0;column;1,0;True;False;False;0,766000032425;False;0,636000156403
ABH1987w;experiment;2017-03-28-12-08-25;3,0;9,0;1000;3,0;1,0;2,0;0,0;column;0,0;False;True;True;1,23300004005;False;1,39700007439
ABH1987w;experiment;2017-03-28-12-08-25;3,0;10,0;1000;0,0;2,0;1,0;3,0;column;1,0;True;True;True;1,96700000763;True;1,33200001717
ABH1987w;experiment;2017-03-28-12-08-25;3,0;11,0;1000;1,0;2,0;0,0;3,0;row;1,0;True;False;True;2,06699991226;True;0,929000139236
ABH1987w;experiment;2017-03-28-12-08-25;3,0;12,0;1000;0,0;3,0;2,0;1,0;row;0,0;False;False;True;1,7990000248;False;0,769999980927
ABH1987w;experiment;2017-03-28-12-08-25;3,0;13,0;1000;1,0;3,0;2,0;0,0;column;1,0;False;True;False;1,66700005531;True;0,899000167847
ABH1987w;experiment;2017-03-28-12-08-25;3,0;14,0;1000;0,0;1,0;3,0;2,0;column;1,0;False;False;True;1,367000103;False;0,932999849319
ABH1987w;experiment;2017-03-28-12-08-25;3,0;15,0;1000;3,0;1,0;2,0;0,0;row;0,0;False;False;False;1,96399998665;True;1,16700005531
ABH1987w;experiment;2017-03-28-12-08-25;3,0;16,0;1000;3,0;0,0;1,0;2,0;row;1,0;True;True;True;1,13400006294;True;0,767999887466
ABH1987w;experiment;2017-03-28-12-08-25;3,0;17,0;1000;2,0;0,0;3,0;1,0;column;0,0;False;True;True;1,83400011063;False;1,00300002098
ABH1987w;experiment;2017-03-28-12-08-25;3,0;18,0;1000;3,0;0,0;2,0;1,0;row;1,0;True;True;True;1,03300023079;True;0,602999925613
ABH1987w;experiment;2017-03-28-12-08-25;3,0;19,0;1000;3,0;0,0;1,0;2,0;row;0,0;True;True;False;1,06699991226;False;1,19799995422
ABH1987w;experiment;2017-03-28-12-08-25;3,0;20,0;1000;0,0;1,0;3,0;2,0;row;1,0;False;True;True;0,801000118256;False;0,93499994278
ABH1987w;experiment;2017-03-28-12-08-25;3,0;21,0;1000;0,0;3,0;1,0;2,0;column;0,0;False;True;False;1,29999995232;True;0,93499994278
ABH1987w;experiment;2017-03-28-12-08-25;3,0;22,0;1000;3,0;1,0;0,0;2,0;column;1,0;True;True;True;1,76600003242;True;1,10400009155
ABH1987w;experiment;2017-03-28-12-08-25;3,0;23,0;1000;2,0;0,0;3,0;1,0;column;0,0;True;True;False;1,13300013542;False;1,23199987411
ABH1987w;experiment;2017-03-28-12-08-25;3,0;24,0;1000;1,0;3,0;2,0;0,0;row;1,0;False;False;False;1,06700015068;True;0,969000101089
ABH1987w;experiment;2017-03-28-12-08-25;3,0;25,0;1000;0,0;1,0;2,0;3,0;column;1,0;False;False;True;0,700000047684;False;0,670000076294
ABH1987w;experiment;2017-03-28-12-08-25;3,0;26,0;1000;0,0;1,0;2,0;3,0;row;0,0;True;True;True;0,934000015259;True;1,13100004196
ABH1987w;experiment;2017-03-28-12-08-25;3,0;27,0;1000;3,0;2,0;1,0;0,0;row;1,0;False;False;True;1,132999897;False;1,26099991798
ABH1987w;experiment;2017-03-28-12-08-25;3,0;28,0;1000;2,0;0,0;3,0;1,0;column;1,0;True;True;True;0,700000047684;True;0,97000002861
ABH1987w;experiment;2017-03-28-12-08-25;3,0;29,0;1000;1,0;3,0;2,0;0,0;row;0,0;True;True;False;1,06599998474;False;0,87099981308
ABH1987w;experiment;2017-03-28-12-08-25;3,0;30,0;1000;2,0;1,0;3,0;0,0;column;0,0;False;True;False;1,53299999237;True;0,938000202179
ABH1987w;experiment;2017-03-28-12-08-25;3,0;31,0;1000;3,0;1,0;0,0;2,0;row;1,0;True;True;True;0,600000143051;True;1,06700015068
ABH1987w;experiment;2017-03-28-12-08-25;3,0;32,0;1000;1,0;0,0;3,0;2,0;row;1,0;False;True;True;1,5;False;0,767999887466
ABH1987w;experiment;2017-03-28-12-08-25;3,0;33,0;1000;0,0;2,0;1,0;3,0;column;0,0;True;True;False;1,00099992752;False;1,3869998455
ABH1987w;experiment;2017-03-28-12-08-25;3,0;34,0;1000;0,0;3,0;2,0;1,0;column;1,0;True;True;True;0,599999904633;True;1,43600010872
ABH1987w;experiment;2017-03-28-12-08-25;3,0;35,0;1000;2,0;3,0;1,0;0,0;row;0,0;False;True;False;1,632999897;True;0,898000001907
ABH1987w;experiment;2017-03-28-12-08-25;3,0;36,0;1000;3,0;0,0;2,0;1,0;column;1,0;True;False;True;0,799999952316;True;1,33400011063
ABH1987w;experiment;2017-03-28-12-08-25;3,0;37,0;1000;1,0;2,0;3,0;0,0;row;1,0;False;True;False;0,967000007629;True;1,20399999619
ABH1987w;experiment;2017-03-28-12-08-25;3,0;38,0;1000;2,0;0,0;1,0;3,0;row;0,0;False;False;False;1,03299999237;True;1,05399990082
ABH1987w;experiment;2017-03-28-12-08-25;3,0;39,0;1000;0,0;3,0;1,0;2,0;row;1,0;False;False;False;0,866999864578;True;0,565999984741
ABH1987w;experiment;2017-03-28-12-08-25;3,0;40,0;1000;1,0;0,0;2,0;3,0;column;0,0;True;False;True;0,532999992371;True;1,16300010681
ABH1987w;experiment;2017-03-28-12-08-25;3,0;41,0;1000;1,0;3,0;2,0;0,0;column;0,0;True;False;False;2,16700005531;False;0,901000022888
ABH1987w;experiment;2017-03-28-12-08-25;3,0;42,0;1000;0,0;3,0;1,0;2,0;column;0,0;True;False;True;1,66600012779;True;1,26600003242
ABH1987w;experiment;2017-03-28-12-08-25;3,0;43,0;1000;2,0;0,0;1,0;3,0;row;1,0;False;False;False;0,665999889374;True;0,968999862671
ABH1987w;experiment;2017-03-28-12-08-25;3,0;44,0;1000;2,0;1,0;0,0;3,0;column;0,0;False;False;False;1,06699991226;True;0,773000001907
ABH1987w;experiment;2017-03-28-12-08-25;3,0;45,0;1000;3,0;2,0;1,0;0,0;column;1,0;False;False;True;0,565999984741;False;1,43700003624
ABH1987w;experiment;2017-03-28-12-08-25;3,0;46,0;1000;1,0;3,0;2,0;0,0;row;1,0;True;True;False;1,13300013542;False;0,836999893188
ABH1987w;experiment;2017-03-28-12-08-25;3,0;47,0;1000;1,0;2,0;3,0;0,0;column;0,0;False;False;False;1,03400015831;True;0,697000026703
ABH1987w;experiment;2017-03-28-12-08-25;3,0;48,0;1000;0,0;1,0;3,0;2,0;column;1,0;True;True;True;1,2650001049;True;0,56200003624
ABH1987w;experiment;2017-03-28-12-08-25;4,0;1,0;100;3,0;0,0;1,0;2,0;row;1,0;False;False;False;1,36599993706;True;0,999000072479
ABH1987w;experiment;2017-03-28-12-08-25;4,0;2,0;100;1,0;2,0;3,0;0,0;row;1,0;True;False;True;1,36699986458;True;0,828999996185
ABH1987w;experiment;2017-03-28-12-08-25;4,0;3,0;100;0,0;2,0;3,0;1,0;column;1,0;False;True;False;1,56700015068;True;0,97000002861
ABH1987w;experiment;2017-03-28-12-08-25;4,0;4,0;100;1,0;0,0;3,0;2,0;row;0,0;True;True;False;1,5;False;0,797999858856
ABH1987w;experiment;2017-03-28-12-08-25;4,0;5,0;100;3,0;0,0;1,0;2,0;row;0,0;False;True;True;1,23300004005;False;1,37099981308
ABH1987w;experiment;2017-03-28-12-08-25;4,0;6,0;100;3,0;1,0;2,0;0,0;row;0,0;False;False;False;1,33299994469;True;1,06900000572
ABH1987w;experiment;2017-03-28-12-08-25;4,0;7,0;100;1,0;0,0;2,0;3,0;row;0,0;False;True;True;0,934000015259;False;0,628000020981
ABH1987w;experiment;2017-03-28-12-08-25;4,0;8,0;100;3,0;0,0;2,0;1,0;column;1,0;True;False;True;1,53399991989;True;1,02999997139
ABH1987w;experiment;2017-03-28-12-08-25;4,0;9,0;100;1,0;0,0;3,0;2,0;column;1,0;False;True;False;1,23399996758;True;1,46300005913
ABH1987w;experiment;2017-03-28-12-08-25;4,0;10,0;100;0,0;1,0;2,0;3,0;row;0,0;True;True;True;1,33299994469;True;1,46799993515
ABH1987w;experiment;2017-03-28-12-08-25;4,0;11,0;100;0,0;3,0;2,0;1,0;row;1,0;True;True;True;0,963999986649;True;0,966000080109
ABH1987w;experiment;2017-03-28-12-08-25;4,0;12,0;100;2,0;3,0;0,0;1,0;row;1,0;False;False;True;0,932999849319;False;0,735000133514
ABH1987w;experiment;2017-03-28-12-08-25;4,0;13,0;100;1,0;0,0;3,0;2,0;column;1,0;True;True;False;1,09999990463;False;0,829999923706
ABH1987w;experiment;2017-03-28-12-08-25;4,0;14,0;100;2,0;0,0;3,0;1,0;row;0,0;False;False;False;1,36599993706;True;1,12999987602
ABH1987w;experiment;2017-03-28-12-08-25;4,0;15,0;100;2,0;1,0;3,0;0,0;column;1,0;True;False;False;1,43300008774;False;0,59500002861
ABH1987w;experiment;2017-03-28-12-08-25;4,0;16,0;100;3,0;0,0;2,0;1,0;row;0,0;True;False;True;0,966000080109;True;1,16799998283
ABH1987w;experiment;2017-03-28-12-08-25;4,0;17,0;100;3,0;1,0;2,0;0,0;row;1,0;False;True;False;2,06799983978;True;0,604000091553
ABH1987w;experiment;2017-03-28-12-08-25;4,0;18,0;100;3,0;2,0;0,0;1,0;column;0,0;True;False;False;1,23399996758;False;0,801000118256
ABH1987w;experiment;2017-03-28-12-08-25;4,0;19,0;100;1,0;0,0;2,0;3,0;row;1,0;False;True;False;1,76699995995;True;0,593999862671
ABH1987w;experiment;2017-03-28-12-08-25;4,0;20,0;100;0,0;3,0;1,0;2,0;row;1,0;True;True;True;1,66700005531;True;0,802000045776
ABH1987w;experiment;2017-03-28-12-08-25;4,0;21,0;100;3,0;0,0;2,0;1,0;column;0,0;True;False;True;1,56699991226;True;1,26400017738
ABH1987w;experiment;2017-03-28-12-08-25;4,0;22,0;100;2,0;0,0;3,0;1,0;row;1,0;False;False;False;1,73300004005;True;0,93799996376
ABH1987w;experiment;2017-03-28-12-08-25;4,0;23,0;100;3,0;0,0;2,0;1,0;column;1,0;False;False;True;2,132999897;False;1,26799988747
ABH1987w;experiment;2017-03-28-12-08-25;4,0;24,0;100;2,0;3,0;0,0;1,0;row;1,0;True;False;True;2,09899997711;True;1,22600007057
ABH1987w;experiment;2017-03-28-12-08-25;4,0;25,0;100;3,0;2,0;1,0;0,0;column;1,0;False;True;False;1,7009999752;True;0,59600019455
ABH1987w;experiment;2017-03-28-12-08-25;4,0;26,0;100;0,0;3,0;2,0;1,0;row;0,0;False;False;True;1,56699991226;False;0,569999933243
ABH1987w;experiment;2017-03-28-12-08-25;4,0;27,0;100;2,0;3,0;1,0;0,0;row;1,0;False;True;False;1,70000004768;True;0,56500005722
ABH1987w;experiment;2017-03-28-12-08-25;4,0;28,0;100;1,0;3,0;0,0;2,0;column;1,0;True;True;True;0,865999937057;True;1,19599986076
ABH1987w;experiment;2017-03-28-12-08-25;4,0;29,0;100;3,0;1,0;2,0;0,0;column;1,0;True;True;False;1,33299994469;False;0,690999984741
ABH1987w;experiment;2017-03-28-12-08-25;4,0;30,0;100;0,0;1,0;3,0;2,0;row;0,0;False;True;False;1,5;True;1,32999992371
ABH1987w;experiment;2017-03-28-12-08-25;4,0;31,0;100;1,0;0,0;2,0;3,0;column;0,0;True;False;False;2,26399993896;False;0,804000139236
ABH1987w;experiment;2017-03-28-12-08-25;4,0;32,0;100;2,0;0,0;1,0;3,0;column;0,0;False;True;False;1,13300013542;True;1,3679997921
ABH1987w;experiment;2017-03-28-12-08-25;4,0;33,0;100;2,0;1,0;0,0;3,0;row;1,0;True;False;False;1,36600017548;False;1,02900004387
ABH1987w;experiment;2017-03-28-12-08-25;4,0;34,0;100;2,0;3,0;1,0;0,0;row;0,0;False;True;False;1,29999995232;True;0,526000022888
ABH1987w;experiment;2017-03-28-12-08-25;4,0;35,0;100;1,0;2,0;3,0;0,0;row;0,0;False;False;True;1,03399991989;False;0,595999956131
ABH1987w;experiment;2017-03-28-12-08-25;4,0;36,0;100;1,0;2,0;0,0;3,0;row;1,0;False;True;False;1,36699986458;True;0,664999961853
ABH1987w;experiment;2017-03-28-12-08-25;4,0;37,0;100;0,0;2,0;3,0;1,0;column;0,0;False;True;True;1,36699986458;False;0,696000099182
ABH1987w;experiment;2017-03-28-12-08-25;4,0;38,0;100;3,0;1,0;2,0;0,0;row;0,0;True;True;True;2,13300013542;True;0,705999851227
ABH1987w;experiment;2017-03-28-12-08-25;4,0;39,0;100;0,0;2,0;1,0;3,0;column;1,0;True;False;False;1,56599998474;False;0,604000091553
ABH1987w;experiment;2017-03-28-12-08-25;4,0;40,0;100;3,0;1,0;2,0;0,0;row;1,0;True;True;True;2,0640001297;True;1,09599995613
ABH1987w;experiment;2017-03-28-12-08-25;4,0;41,0;100;2,0;1,0;3,0;0,0;column;0,0;True;True;True;1,66600012779;True;1,30500006676
ABH1987w;experiment;2017-03-28-12-08-25;4,0;42,0;100;1,0;2,0;3,0;0,0;column;0,0;False;True;False;1,0;True;0,996999979019
ABH1987w;experiment;2017-03-28-12-08-25;4,0;43,0;100;1,0;0,0;2,0;3,0;column;0,0;False;True;False;1,8630001545;True;0,628000020981
ABH1987w;experiment;2017-03-28-12-08-25;4,0;44,0;100;2,0;3,0;0,0;1,0;row;0,0;False;True;False;1,53299999237;True;1,03200006485
ABH1987w;experiment;2017-03-28-12-08-25;4,0;45,0;100;0,0;2,0;3,0;1,0;column;0,0;True;False;True;1,10000014305;True;1,03999996185
ABH1987w;experiment;2017-03-28-12-08-25;4,0;46,0;100;1,0;3,0;2,0;0,0;column;1,0;True;False;False;1,67300009727;False;1,30199980736
ABH1987w;experiment;2017-03-28-12-08-25;4,0;47,0;100;2,0;1,0;0,0;3,0;row;1,0;False;True;False;1,13300013542;True;1,52199983597
ABH1987w;experiment;2017-03-28-12-08-25;4,0;48,0;100;2,0;1,0;0,0;3,0;column;0,0;True;False;True;0,900000095367;True;0,535000085831
ABH1987w;experiment;2017-03-28-12-08-25;5,0;1,0;1000;2,0;3,0;1,0;0,0;row;0,0;True;False;False;1,36599993706;False;1,03200006485
ABH1987w;experiment;2017-03-28-12-08-25;5,0;2,0;1000;3,0;2,0;1,0;0,0;row;0,0;True;False;True;1,0;True;1,46300005913
ABH1987w;experiment;2017-03-28-12-08-25;5,0;3,0;1000;3,0;1,0;0,0;2,0;column;0,0;True;True;False;1,10000014305;False;0,736000061035
ABH1987w;experiment;2017-03-28-12-08-25;5,0;4,0;1000;2,0;3,0;1,0;0,0;column;0,0;True;True;True;1,10000014305;True;1,0720000267
ABH1987w;experiment;2017-03-28-12-08-25;5,0;5,0;1000;0,0;2,0;3,0;1,0;row;1,0;False;True;False;1,132999897;True;0,993000030518
ABH1987w;experiment;2017-03-28-12-08-25;5,0;6,0;1000;2,0;0,0;3,0;1,0;row;1,0;True;False;True;1,46599984169;True;1,03099989891
ABH1987w;experiment;2017-03-28-12-08-25;5,0;7,0;1000;1,0;0,0;3,0;2,0;column;0,0;True;True;False;1,16700005531;False;1,00099992752
ABH1987w;experiment;2017-03-28-12-08-25;5,0;8,0;1000;1,0;0,0;3,0;2,0;row;0,0;True;True;False;1,23300004005;False;0,763000011444
ABH1987w;experiment;2017-03-28-12-08-25;5,0;9,0;1000;1,0;2,0;0,0;3,0;column;0,0;True;False;True;1,13400006294;True;0,56500005722
ABH1987w;experiment;2017-03-28-12-08-25;5,0;10,0;1000;2,0;1,0;0,0;3,0;column;1,0;True;True;True;0,967000007629;True;1,40199995041
ABH1987w;experiment;2017-03-28-12-08-25;5,0;11,0;1000;1,0;0,0;3,0;2,0;column;1,0;False;False;True;1,33199977875;False;1,46399998665
ABH1987w;experiment;2017-03-28-12-08-25;5,0;12,0;1000;0,0;1,0;3,0;2,0;row;0,0;False;True;False;1,23100018501;True;0,917999982834
ABH1987w;experiment;2017-03-28-12-08-25;5,0;13,0;1000;1,0;0,0;2,0;3,0;column;1,0;True;False;False;0,967000007629;False;1,23300004005
ABH1987w;experiment;2017-03-28-12-08-25;5,0;14,0;1000;2,0;1,0;3,0;0,0;row;1,0;False;False;True;1,29999995232;False;1,23399996758
ABH1987w;experiment;2017-03-28-12-08-25;5,0;15,0;1000;2,0;0,0;1,0;3,0;column;1,0;False;True;False;1,03200006485;True;0,869000196457
ABH1987w;experiment;2017-03-28-12-08-25;5,0;16,0;1000;1,0;0,0;3,0;2,0;row;0,0;False;False;False;1,10000014305;True;1,06799983978
ABH1987w;experiment;2017-03-28-12-08-25;5,0;17,0;1000;1,0;3,0;0,0;2,0;row;1,0;True;True;True;1,0;True;1,33500003815
ABH1987w;experiment;2017-03-28-12-08-25;5,0;18,0;1000;3,0;2,0;0,0;1,0;column;0,0;False;True;False;0,934000015259;True;1,36600017548
ABH1987w;experiment;2017-03-28-12-08-25;5,0;19,0;1000;1,0;3,0;0,0;2,0;row;1,0;False;False;True;1,53399991989;False;1,09900021553
ABH1987w;experiment;2017-03-28-12-08-25;5,0;20,0;1000;1,0;0,0;2,0;3,0;column;1,0;False;True;False;1,16700005531;True;1,49499988556
ABH1987w;experiment;2017-03-28-12-08-25;5,0;21,0;1000;2,0;3,0;1,0;0,0;column;1,0;True;False;False;0,964999914169;False;0,861000061035
ABH1987w;experiment;2017-03-28-12-08-25;5,0;22,0;1000;3,0;0,0;2,0;1,0;column;1,0;False;False;True;1,76699995995;False;0,828999996185
ABH1987w;experiment;2017-03-28-12-08-25;5,0;23,0;1000;1,0;3,0;0,0;2,0;column;0,0;False;False;True;1,59899997711;False;0,936000108719
ABH1987w;experiment;2017-03-28-12-08-25;5,0;24,0;1000;1,0;2,0;3,0;0,0;row;0,0;True;True;False;1,132999897;False;1,29999995232
ABH1987w;experiment;2017-03-28-12-08-25;5,0;25,0;1000;2,0;1,0;3,0;0,0;column;1,0;False;False;True;0,967000007629;False;1,42700004578
ABH1987w;experiment;2017-03-28-12-08-25;5,0;26,0;1000;2,0;1,0;0,0;3,0;row;0,0;True;True;True;1,09999990463;True;0,725999832153
ABH1987w;experiment;2017-03-28-12-08-25;5,0;27,0;1000;2,0;3,0;0,0;1,0;row;0,0;True;True;True;0,899999856949;True;1,10400009155
ABH1987w;experiment;2017-03-28-12-08-25;5,0;28,0;1000;0,0;2,0;3,0;1,0;row;0,0;False;True;False;1,13399982452;True;0,96599984169
ABH1987w;experiment;2017-03-28-12-08-25;5,0;29,0;1000;0,0;3,0;1,0;2,0;row;0,0;True;True;True;1,26699995995;True;1,46200013161
ABH1987w;experiment;2017-03-28-12-08-25;5,0;30,0;1000;0,0;2,0;3,0;1,0;row;1,0;True;True;False;1,53299999237;False;1,16499996185
ABH1987w;experiment;2017-03-28-12-08-25;5,0;31,0;1000;0,0;3,0;2,0;1,0;row;1,0;True;True;True;0,899999856949;True;1,26300001144
ABH1987w;experiment;2017-03-28-12-08-25;5,0;32,0;1000;3,0;2,0;0,0;1,0;column;1,0;True;True;True;1,0;True;1,13300013542
ABH1987w;experiment;2017-03-28-12-08-25;5,0;33,0;1000;2,0;3,0;0,0;1,0;row;1,0;False;True;False;0,733000040054;True;0,633000135422
ABH1987w;experiment;2017-03-28-12-08-25;5,0;34,0;1000;2,0;3,0;0,0;1,0;row;1,0;True;False;True;1,13300013542;True;0,863000154495
ABH1987w;experiment;2017-03-28-12-08-25;5,0;35,0;1000;2,0;0,0;1,0;3,0;row;1,0;True;True;True;1,26300001144;True;1,27200007439
ABH1987w;experiment;2017-03-28-12-08-25;5,0;36,0;1000;0,0;2,0;3,0;1,0;column;1,0;False;True;False;0,467000007629;True;1,33400011063
ABH1987w;experiment;2017-03-28-12-08-25;5,0;37,0;1000;0,0;1,0;2,0;3,0;column;0,0;False;False;False;0,967000007629;True;0,868000030518
ABH1987w;experiment;2017-03-28-12-08-25;5,0;38,0;1000;3,0;2,0;0,0;1,0;row;0,0;True;False;True;1,13300013542;True;0,592000007629
ABH1987w;experiment;2017-03-28-12-08-25;5,0;39,0;1000;3,0;1,0;0,0;2,0;column;1,0;False;False;False;1,03299999237;True;1,367000103
ABH1987w;experiment;2017-03-28-12-08-25;5,0;40,0;1000;1,0;2,0;0,0;3,0;row;1,0;False;True;False;1,26699995995;True;0,822000026703
ABH1987w;experiment;2017-03-28-12-08-25;5,0;41,0;1000;0,0;1,0;2,0;3,0;column;0,0;True;True;False;1,132999897;False;1,23799991608
ABH1987w;experiment;2017-03-28-12-08-25;5,0;42,0;1000;2,0;0,0;3,0;1,0;row;0,0;True;True;True;0,934000015259;True;1,33599996567
ABH1987w;experiment;2017-03-28-12-08-25;5,0;43,0;1000;0,0;1,0;3,0;2,0;column;0,0;False;True;False;1,16699981689;True;1,16100001335
ABH1987w;experiment;2017-03-28-12-08-25;5,0;44,0;1000;0,0;2,0;3,0;1,0;column;1,0;True;False;True;1,0;True;0,727999925613
ABH1987w;experiment;2017-03-28-12-08-25;5,0;45,0;1000;0,0;2,0;1,0;3,0;column;1,0;False;False;True;0,900000095367;False;0,734999895096
ABH1987w;experiment;2017-03-28-12-08-25;5,0;46,0;1000;1,0;3,0;2,0;0,0;column;1,0;True;True;True;1,20000004768;True;0,97100019455
ABH1987w;experiment;2017-03-28-12-08-25;5,0;47,0;1000;0,0;2,0;1,0;3,0;row;1,0;False;False;False;0,967000007629;True;1,30099987984
ABH1987w;experiment;2017-03-28-12-08-25;5,0;48,0;1000;3,0;1,0;0,0;2,0;row;0,0;True;True;True;1,79999995232;True;0,893000125885
ABH1987w;experiment;2017-03-28-12-08-25;6,0;1,0;-100;0,0;2,0;3,0;1,0;column;1,0;True;True;True;2,48300004005;True;1,03099989891
ABH1987w;experiment;2017-03-28-12-08-25;6,0;2,0;-100;2,0;0,0;3,0;1,0;row;1,0;True;True;True;1,35000014305;True;1,40000009537
ABH1987w;experiment;2017-03-28-12-08-25;6,0;3,0;-100;0,0;1,0;2,0;3,0;column;0,0;True;False;False;1,14900016785;False;0,737999916077
ABH1987w;experiment;2017-03-28-12-08-25;6,0;4,0;-100;1,0;0,0;3,0;2,0;row;0,0;True;True;True;1,51399993896;True;0,93499994278
ABH1987w;experiment;2017-03-28-12-08-25;6,0;5,0;-100;0,0;1,0;2,0;3,0;row;1,0;True;False;False;1,01699995995;False;1,16299986839
ABH1987w;experiment;2017-03-28-12-08-25;6,0;6,0;-100;1,0;0,0;2,0;3,0;column;1,0;False;True;True;1,81599998474;False;0,729000091553
ABH1987w;experiment;2017-03-28-12-08-25;6,0;7,0;-100;3,0;2,0;0,0;1,0;column;0,0;True;True;True;1,01600003242;True;1,39599990845
ABH1987w;experiment;2017-03-28-12-08-25;6,0;8,0;-100;1,0;2,0;0,0;3,0;row;1,0;True;True;True;1,48300004005;True;1,42700004578
ABH1987w;experiment;2017-03-28-12-08-25;6,0;9,0;-100;3,0;0,0;2,0;1,0;row;1,0;False;True;True;1,61400008202;False;0,863000154495
ABH1987w;experiment;2017-03-28-12-08-25;6,0;10,0;-100;3,0;2,0;0,0;1,0;column;1,0;False;False;False;1,48399996758;True;0,760999917984
ABH1987w;experiment;2017-03-28-12-08-25;6,0;11,0;-100;1,0;0,0;2,0;3,0;column;0,0;False;True;False;1,41700005531;True;0,759000062943
ABH1987w;experiment;2017-03-28-12-08-25;6,0;12,0;-100;2,0;0,0;3,0;1,0;row;0,0;True;False;True;1,41100001335;True;0,996000051498
ABH1987w;experiment;2017-03-28-12-08-25;6,0;13,0;-100;1,0;2,0;3,0;0,0;column;0,0;True;False;True;1,88399982452;True;0,663000106812
ABH1987w;experiment;2017-03-28-12-08-25;6,0;14,0;-100;0,0;3,0;1,0;2,0;row;1,0;False;False;False;1,48399996758;True;1,00300002098
ABH1987w;experiment;2017-03-28-12-08-25;6,0;15,0;-100;3,0;1,0;2,0;0,0;column;1,0;True;False;True;1,51699995995;True;1,17299985886
ABH1987w;experiment;2017-03-28-12-08-25;6,0;16,0;-100;3,0;0,0;2,0;1,0;row;0,0;True;False;True;1,18299984932;True;1,02899980545
ABH1987w;experiment;2017-03-28-12-08-25;6,0;17,0;-100;2,0;3,0;1,0;0,0;row;1,0;True;False;False;0,983000040054;False;0,736999988556
ABH1987w;experiment;2017-03-28-12-08-25;6,0;18,0;-100;3,0;0,0;1,0;2,0;column;0,0;True;False;True;1,35000014305;True;0,528000116348
ABH1987w;experiment;2017-03-28-12-08-25;6,0;19,0;-100;0,0;2,0;1,0;3,0;column;0,0;False;True;False;0,848999977112;True;1,13100004196
ABH1987w;experiment;2017-03-28-12-08-25;6,0;20,0;-100;2,0;0,0;1,0;3,0;row;1,0;False;False;False;1,38300013542;True;0,934000015259
ABH1987w;experiment;2017-03-28-12-08-25;6,0;21,0;-100;3,0;1,0;0,0;2,0;row;1,0;False;True;False;1,51600003242;True;0,772000074387
ABH1987w;experiment;2017-03-28-12-08-25;6,0;22,0;-100;3,0;2,0;0,0;1,0;row;1,0;True;False;False;1,01699995995;False;0,631000041962
ABH1987w;experiment;2017-03-28-12-08-25;6,0;23,0;-100;0,0;3,0;1,0;2,0;row;1,0;True;True;False;1,58299994469;False;0,654000043869
ABH1987w;experiment;2017-03-28-12-08-25;6,0;24,0;-100;3,0;1,0;2,0;0,0;row;0,0;True;False;False;1,48399996758;False;1,46900010109
ABH1987w;experiment;2017-03-28-12-08-25;6,0;25,0;-100;0,0;3,0;2,0;1,0;column;1,0;False;True;False;1,44899988174;True;1,12800002098
ABH1987w;experiment;2017-03-28-12-08-25;6,0;26,0;-100;0,0;2,0;1,0;3,0;row;1,0;True;True;True;1,4509999752;True;1,23000001907
ABH1987w;experiment;2017-03-28-12-08-25;6,0;27,0;-100;0,0;1,0;3,0;2,0;row;0,0;True;False;True;1,18099999428;True;0,835000038147
ABH1987w;experiment;2017-03-28-12-08-25;6,0;28,0;-100;1,0;0,0;3,0;2,0;column;1,0;True;True;False;1,04999995232;False;1,22800016403
ABH1987w;experiment;2017-03-28-12-08-25;6,0;29,0;-100;3,0;0,0;1,0;2,0;column;1,0;True;True;True;1,51600003242;True;0,736999988556
ABH1987w;experiment;2017-03-28-12-08-25;6,0;30,0;-100;2,0;0,0;1,0;3,0;row;0,0;True;True;False;1,45000004768;False;1,06200003624
ABH1987w;experiment;2017-03-28-12-08-25;6,0;31,0;-100;0,0;1,0;3,0;2,0;row;0,0;False;True;False;1,48399996758;True;1,33699989319
ABH1987w;experiment;2017-03-28-12-08-25;6,0;32,0;-100;0,0;1,0;3,0;2,0;column;0,0;True;True;False;1,68400001526;False;0,536999940872
ABH1987w;experiment;2017-03-28-12-08-25;6,0;33,0;-100;3,0;2,0;0,0;1,0;column;1,0;True;False;True;1,382999897;True;1,23500013351
ABH1987w;experiment;2017-03-28-12-08-25;6,0;34,0;-100;0,0;3,0;2,0;1,0;row;1,0;False;True;False;1,51699995995;True;0,56299996376
ABH1987w;experiment;2017-03-28-12-08-25;6,0;35,0;-100;1,0;3,0;0,0;2,0;row;0,0;True;True;False;1,31700015068;False;0,833999872208
ABH1987w;experiment;2017-03-28-12-08-25;6,0;36,0;-100;0,0;2,0;1,0;3,0;column;1,0;True;False;True;1,51600003242;True;1,29099988937
ABH1987w;experiment;2017-03-28-12-08-25;6,0;37,0;-100;0,0;2,0;1,0;3,0;row;0,0;True;False;True;1,01699995995;True;1,06699991226
ABH1987w;experiment;2017-03-28-12-08-25;6,0;38,0;-100;3,0;0,0;1,0;2,0;column;0,0;False;True;False;1,44999980927;True;0,868999958038
ABH1987w;experiment;2017-03-28-12-08-25;6,0;39,0;-100;1,0;2,0;0,0;3,0;column;1,0;True;True;True;1,34899997711;True;0,566999912262
ABH1987w;experiment;2017-03-28-12-08-25;6,0;40,0;-100;2,0;3,0;1,0;0,0;column;0,0;True;True;False;2,01699995995;False;1,32299995422
ABH1987w;experiment;2017-03-28-12-08-25;6,0;41,0;-100;1,0;3,0;0,0;2,0;column;1,0;True;False;False;1,85000014305;False;0,670000076294
ABH1987w;experiment;2017-03-28-12-08-25;6,0;42,0;-100;3,0;1,0;2,0;0,0;row;0,0;False;False;False;1,68200016022;True;1,29399991035
ABH1987w;experiment;2017-03-28-12-08-25;6,0;43,0;-100;2,0;3,0;0,0;1,0;column;0,0;True;False;False;1,81700015068;False;0,934000015259
ABH1987w;experiment;2017-03-28-12-08-25;6,0;44,0;-100;1,0;3,0;2,0;0,0;column;0,0;False;True;False;0,881999969482;True;0,630000114441
ABH1987w;experiment;2017-03-28-12-08-25;6,0;45,0;-100;0,0;3,0;2,0;1,0;row;0,0;True;True;True;1,68300008774;True;1,16300010681
ABH1987w;experiment;2017-03-28-12-08-25;6,0;46,0;-100;1,0;2,0;0,0;3,0;column;0,0;True;False;True;1,01600003242;True;0,625999927521
ABH1987w;experiment;2017-03-28-12-08-25;6,0;47,0;-100;0,0;3,0;2,0;1,0;row;0,0;False;True;False;1,31699991226;True;0,824000120163
ABH1987w;experiment;2017-03-28-12-08-25;6,0;48,0;-100;2,0;0,0;3,0;1,0;column;1,0;False;True;True;1,117000103;False;0,561000108719
ABH1987w;experiment;2017-03-28-12-08-25;7,0;1,0;-100;2,0;0,0;3,0;1,0;column;0,0;False;False;False;1,117000103;True;1,40100002289
ABH1987w;experiment;2017-03-28-12-08-25;7,0;2,0;-100;1,0;3,0;2,0;0,0;row;1,0;False;True;True;1,24699997902;False;0,732999801636
ABH1987w;experiment;2017-03-28-12-08-25;7,0;3,0;-100;3,0;1,0;0,0;2,0;row;0,0;False;True;False;1,18499994278;True;0,535000085831
ABH1987w;experiment;2017-03-28-12-08-25;7,0;4,0;-100;2,0;3,0;0,0;1,0;row;1,0;False;True;False;1,31500005722;True;1,50300002098
ABH1987w;experiment;2017-03-28-12-08-25;7,0;5,0;-100;3,0;1,0;0,0;2,0;row;0,0;True;True;True;1,11500000954;True;1,50200009346
ABH1987w;experiment;2017-03-28-12-08-25;7,0;6,0;-100;1,0;2,0;3,0;0,0;column;1,0;False;False;False;0,915999889374;True;1,49799990654
ABH1987w;experiment;2017-03-28-12-08-25;7,0;7,0;-100;2,0;0,0;3,0;1,0;row;0,0;False;True;False;0,983999967575;True;1,36999988556
ABH1987w;experiment;2017-03-28-12-08-25;7,0;8,0;-100;2,0;3,0;1,0;0,0;column;1,0;True;False;False;1,5490000248;False;1,13499999046
ABH1987w;experiment;2017-03-28-12-08-25;7,0;9,0;-100;3,0;2,0;1,0;0,0;column;0,0;False;True;False;1,382999897;True;0,635999917984
ABH1987w;experiment;2017-03-28-12-08-25;7,0;10,0;-100;0,0;1,0;2,0;3,0;row;1,0;False;True;True;1,04999995232;False;1,33500003815
ABH1987w;experiment;2017-03-28-12-08-25;7,0;11,0;-100;1,0;3,0;0,0;2,0;column;1,0;False;False;False;1,91699981689;True;0,821000099182
ABH1987w;experiment;2017-03-28-12-08-25;7,0;12,0;-100;1,0;2,0;3,0;0,0;row;1,0;True;True;True;1,28299999237;True;1,23099994659
ABH1987w;experiment;2017-03-28-12-08-25;7,0;13,0;-100;3,0;1,0;2,0;0,0;row;1,0;True;True;True;1,04999995232;True;1,2349998951
ABH1987w;experiment;2017-03-28-12-08-25;7,0;14,0;-100;3,0;0,0;1,0;2,0;row;0,0;True;True;False;1,01600003242;False;0,52799987793
ABH1987w;experiment;2017-03-28-12-08-25;7,0;15,0;-100;2,0;1,0;0,0;3,0;column;0,0;False;True;False;1,01599979401;True;0,768999814987
ABH1987w;experiment;2017-03-28-12-08-25;7,0;16,0;-100;3,0;2,0;0,0;1,0;row;0,0;True;True;True;1,64900016785;True;1,30399990082
ABH1987w;experiment;2017-03-28-12-08-25;7,0;17,0;-100;3,0;2,0;0,0;1,0;row;1,0;False;False;False;1,08400011063;True;0,96599984169
ABH1987w;experiment;2017-03-28-12-08-25;7,0;18,0;-100;1,0;2,0;0,0;3,0;row;0,0;True;False;True;0,949000120163;True;0,704999923706
ABH1987w;experiment;2017-03-28-12-08-25;7,0;19,0;-100;2,0;0,0;3,0;1,0;row;1,0;False;True;False;0,851000070572;True;0,697000026703
ABH1987w;experiment;2017-03-28-12-08-25;7,0;20,0;-100;1,0;3,0;2,0;0,0;column;1,0;True;True;False;1,875;False;0,631000041962
ABH1987w;experiment;2017-03-28-12-08-25;7,0;21,0;-100;1,0;2,0;0,0;3,0;column;0,0;False;False;False;2,08300018311;True;0,726999998093
ABH1987w;experiment;2017-03-28-12-08-25;7,0;22,0;-100;0,0;2,0;3,0;1,0;row;0,0;True;False;True;1,11599993706;True;0,634999990463
ABH1987w;experiment;2017-03-28-12-08-25;7,0;23,0;-100;2,0;0,0;3,0;1,0;column;1,0;True;True;True;1,6139998436;True;1,43499994278
ABH1987w;experiment;2017-03-28-12-08-25;7,0;24,0;-100;0,0;3,0;2,0;1,0;column;0,0;True;True;True;1,28199982643;True;0,996999979019
ABH1987w;experiment;2017-03-28-12-08-25;7,0;25,0;-100;3,0;1,0;2,0;0,0;column;0,0;False;True;False;1,54999995232;True;0,536999940872
ABH1987w;experiment;2017-03-28-12-08-25;7,0;26,0;-100;3,0;2,0;1,0;0,0;row;0,0;True;True;True;1,75;True;1,40199995041
ABH1987w;experiment;2017-03-28-12-08-25;7,0;27,0;-100;1,0;0,0;2,0;3,0;row;1,0;False;True;False;1,5490000248;True;1,33399987221
ABH1987w;experiment;2017-03-28-12-08-25;7,0;28,0;-100;0,0;3,0;1,0;2,0;row;0,0;True;False;True;0,881999969482;True;0,936000108719
ABH1987w;experiment;2017-03-28-12-08-25;7,0;29,0;-100;0,0;2,0;3,0;1,0;column;1,0;False;False;False;1,11699986458;True;1,02900004387
ABH1987w;experiment;2017-03-28-12-08-25;7,0;30,0;-100;2,0;1,0;3,0;0,0;row;0,0;False;True;False;0,983999967575;True;1,02900004387
ABH1987w;experiment;2017-03-28-12-08-25;7,0;31,0;-100;0,0;1,0;2,0;3,0;column;1,0;False;False;False;1,5490000248;True;1,13000011444
ABH1987w;experiment;2017-03-28-12-08-25;7,0;32,0;-100;0,0;1,0;2,0;3,0;column;0,0;False;True;False;0,881999969482;True;1,15999984741
ABH1987w;experiment;2017-03-28-12-08-25;7,0;33,0;-100;1,0;0,0;3,0;2,0;column;1,0;False;True;False;1,91600012779;True;0,601999998093
ABH1987w;experiment;2017-03-28-12-08-25;7,0;34,0;-100;3,0;2,0;0,0;1,0;row;0,0;False;False;False;1,01600003242;True;1,46299982071
ABH1987w;experiment;2017-03-28-12-08-25;7,0;35,0;-100;0,0;3,0;1,0;2,0;column;1,0;True;False;False;1,58400011063;False;1,03399991989
ABH1987w;experiment;2017-03-28-12-08-25;7,0;36,0;-100;0,0;3,0;1,0;2,0;column;0,0;False;True;False;1,31699991226;True;0,53400015831
ABH1987w;experiment;2017-03-28-12-08-25;7,0;37,0;-100;1,0;2,0;3,0;0,0;column;0,0;False;False;True;1,38400006294;False;0,796000003815
ABH1987w;experiment;2017-03-28-12-08-25;7,0;38,0;-100;0,0;3,0;1,0;2,0;column;0,0;True;True;True;1,28299999237;True;1,13700008392
ABH1987w;experiment;2017-03-28-12-08-25;7,0;39,0;-100;3,0;1,0;0,0;2,0;column;1,0;True;False;False;1,88400006294;False;0,897000074387
ABH1987w;experiment;2017-03-28-12-08-25;7,0;40,0;-100;2,0;0,0;1,0;3,0;column;0,0;True;False;True;1,01699995995;True;0,602000236511
ABH1987w;experiment;2017-03-28-12-08-25;7,0;41,0;-100;3,0;0,0;1,0;2,0;row;1,0;False;True;True;1,14999985695;False;1,46799993515
ABH1987w;experiment;2017-03-28-12-08-25;7,0;42,0;-100;0,0;2,0;1,0;3,0;column;0,0;True;False;True;0,916999816895;True;1,06699991226
ABH1987w;experiment;2017-03-28-12-08-25;7,0;43,0;-100;2,0;1,0;0,0;3,0;row;1,0;False;True;False;1,35099983215;True;1,10199999809
ABH1987w;experiment;2017-03-28-12-08-25;7,0;44,0;-100;1,0;3,0;2,0;0,0;column;1,0;False;True;False;1,31699991226;True;0,934000015259
ABH1987w;experiment;2017-03-28-12-08-25;7,0;45,0;-100;2,0;1,0;3,0;0,0;column;0,0;True;True;True;0,717000007629;True;0,769999980927
ABH1987w;experiment;2017-03-28-12-08-25;7,0;46,0;-100;2,0;3,0;0,0;1,0;column;1,0;False;False;False;1,54999995232;True;1,5
ABH1987w;experiment;2017-03-28-12-08-25;7,0;47,0;-100;2,0;1,0;3,0;0,0;column;1,0;True;False;True;1,05100011826;True;0,566999912262
ABH1987w;experiment;2017-03-28-12-08-25;7,0;48,0;-100;2,0;3,0;1,0;0,0;row;0,0;True;True;True;0,916000127792;True;0,760999917984
ABH1987w;experiment;2017-03-28-12-08-25;8,0;1,0;1000;0,0;3,0;2,0;1,0;column;1,0;False;False;False;1,60100007057;True;1,4319999218
ABH1987w;experiment;2017-03-28-12-08-25;8,0;2,0;1000;0,0;1,0;2,0;3,0;row;1,0;True;False;False;1,43200016022;False;1,33400011063
ABH1987w;experiment;2017-03-28-12-08-25;8,0;3,0;1000;3,0;0,0;1,0;2,0;row;1,0;False;False;True;1,59999990463;False;0,661999940872
ABH1987w;experiment;2017-03-28-12-08-25;8,0;4,0;1000;2,0;0,0;1,0;3,0;column;0,0;True;True;True;1,83400011063;True;0,763999938965
ABH1987w;experiment;2017-03-28-12-08-25;8,0;5,0;1000;1,0;2,0;3,0;0,0;column;1,0;False;True;False;1,06699991226;True;1,19400000572
ABH1987w;experiment;2017-03-28-12-08-25;8,0;6,0;1000;0,0;3,0;2,0;1,0;row;1,0;False;True;False;1,76600003242;True;1,06500005722
ABH1987w;experiment;2017-03-28-12-08-25;8,0;7,0;1000;3,0;0,0;2,0;1,0;row;0,0;False;True;False;1,13399982452;True;0,731999874115
ABH1987w;experiment;2017-03-28-12-08-25;8,0;8,0;1000;3,0;2,0;0,0;1,0;row;1,0;False;True;True;0,766999959946;False;0,734999895096
ABH1987w;experiment;2017-03-28-12-08-25;8,0;9,0;1000;2,0;0,0;1,0;3,0;column;0,0;False;False;False;1,86600017548;True;1,03299999237
ABH1987w;experiment;2017-03-28-12-08-25;8,0;10,0;1000;3,0;0,0;1,0;2,0;column;0,0;False;True;True;1,56699991226;False;0,865999937057
ABH1987w;experiment;2017-03-28-12-08-25;8,0;11,0;1000;0,0;1,0;2,0;3,0;column;1,0;True;True;False;1,0;False;1,46799993515
ABH1987w;experiment;2017-03-28-12-08-25;8,0;12,0;1000;3,0;2,0;1,0;0,0;column;1,0;True;True;True;1,43299984932;True;1,06399989128
ABH1987w;experiment;2017-03-28-12-08-25;8,0;13,0;1000;3,0;0,0;1,0;2,0;column;1,0;False;False;False;1,40000009537;True;0,869000196457
ABH1987w;experiment;2017-03-28-12-08-25;8,0;14,0;1000;1,0;2,0;3,0;0,0;column;0,0;True;False;True;1,29999995232;True;1,13199996948
ABH1987w;experiment;2017-03-28-12-08-25;8,0;15,0;1000;3,0;1,0;2,0;0,0;row;1,0;True;False;False;1,43299984932;False;1,26099991798
ABH1987w;experiment;2017-03-28-12-08-25;8,0;16,0;1000;0,0;2,0;1,0;3,0;column;0,0;False;False;True;1,06599998474;False;1,06599998474
ABH1987w;experiment;2017-03-28-12-08-25;8,0;17,0;1000;0,0;2,0;3,0;1,0;column;0,0;True;True;True;0,933000087738;True;0,902000188828
ABH1987w;experiment;2017-03-28-12-08-25;8,0;18,0;1000;0,0;3,0;2,0;1,0;column;0,0;False;False;False;1,2009999752;True;0,631999969482
ABH1987w;experiment;2017-03-28-12-08-25;8,0;19,0;1000;0,0;2,0;1,0;3,0;row;0,0;False;False;True;1,73300004005;False;1,1930000782
ABH1987w;experiment;2017-03-28-12-08-25;8,0;20,0;1000;2,0;3,0;1,0;0,0;column;1,0;False;False;True;0,933000087738;False;0,602999925613
ABH1987w;experiment;2017-03-28-12-08-25;8,0;21,0;1000;3,0;0,0;2,0;1,0;column;0,0;False;True;False;1,59800004959;True;1,49500012398
ABH1987w;experiment;2017-03-28-12-08-25;8,0;22,0;1000;3,0;0,0;1,0;2,0;column;0,0;True;False;True;1,23399996758;True;0,700000047684
ABH1987w;experiment;2017-03-28-12-08-25;8,0;23,0;1000;1,0;3,0;0,0;2,0;row;0,0;False;True;False;1,09999990463;True;1,36199998856
ABH1987w;experiment;2017-03-28-12-08-25;8,0;24,0;1000;1,0;3,0;2,0;0,0;row;0,0;False;False;True;1,29999995232;False;1,27000021935
ABH1987w;experiment;2017-03-28-12-08-25;8,0;25,0;1000;2,0;1,0;0,0;3,0;row;0,0;False;False;False;1,00100016594;True;1,26300001144
ABH1987w;experiment;2017-03-28-12-08-25;8,0;26,0;1000;0,0;2,0;1,0;3,0;row;0,0;True;False;True;1,46700000763;True;1,32500004768
ABH1987w;experiment;2017-03-28-12-08-25;8,0;27,0;1000;2,0;0,0;3,0;1,0;row;0,0;False;False;False;0,900000095367;True;1,39399981499
ABH1987w;experiment;2017-03-28-12-08-25;8,0;28,0;1000;2,0;3,0;0,0;1,0;column;0,0;True;True;False;1,47000002861;False;0,667000055313
ABH1987w;experiment;2017-03-28-12-08-25;8,0;29,0;1000;0,0;3,0;1,0;2,0;column;1,0;True;True;True;1,33299994469;True;0,600999832153
ABH1987w;experiment;2017-03-28-12-08-25;8,0;30,0;1000;3,0;2,0;0,0;1,0;row;0,0;False;True;False;0,897000074387;True;1,09100008011
ABH1987w;experiment;2017-03-28-12-08-25;8,0;31,0;1000;2,0;3,0;1,0;0,0;row;1,0;False;True;True;1,43299984932;False;1,20100021362
ABH1987w;experiment;2017-03-28-12-08-25;8,0;32,0;1000;2,0;3,0;0,0;1,0;column;1,0;True;True;True;1,06699991226;True;1,46199989319
ABH1987w;experiment;2017-03-28-12-08-25;8,0;33,0;1000;0,0;3,0;1,0;2,0;row;0,0;False;True;False;0,966000080109;True;0,567999839783
ABH1987w;experiment;2017-03-28-12-08-25;8,0;34,0;1000;3,0;0,0;2,0;1,0;column;0,0;True;False;False;0,967000007629;False;0,868999958038
ABH1987w;experiment;2017-03-28-12-08-25;8,0;35,0;1000;3,0;0,0;2,0;1,0;row;0,0;True;False;False;1,89900016785;False;1,06999993324
ABH1987w;experiment;2017-03-28-12-08-25;8,0;36,0;1000;1,0;3,0;2,0;0,0;column;0,0;False;False;False;1,06599998474;True;1,16700005531
ABH1987w;experiment;2017-03-28-12-08-25;8,0;37,0;1000;2,0;1,0;0,0;3,0;row;1,0;True;False;False;1,70000004768;False;0,605000019073
ABH1987w;experiment;2017-03-28-12-08-25;8,0;38,0;1000;0,0;3,0;1,0;2,0;row;1,0;True;False;False;1,93400001526;False;1,02999997139
ABH1987w;experiment;2017-03-28-12-08-25;8,0;39,0;1000;1,0;2,0;0,0;3,0;row;0,0;False;False;True;1,40000009537;False;0,901000022888
ABH1987w;experiment;2017-03-28-12-08-25;8,0;40,0;1000;1,0;3,0;0,0;2,0;column;1,0;True;False;True;1,26699995995;True;0,993999958038
ABH1987w;experiment;2017-03-28-12-08-25;8,0;41,0;1000;2,0;1,0;0,0;3,0;column;0,0;True;True;False;1,03299999237;False;0,592000007629
ABH1987w;experiment;2017-03-28-12-08-25;8,0;42,0;1000;3,0;2,0;1,0;0,0;row;0,0;False;False;True;1,06699991226;False;1,20499992371
ABH1987w;experiment;2017-03-28-12-08-25;8,0;43,0;1000;3,0;2,0;1,0;0,0;column;0,0;True;True;False;1,23300004005;False;1,16200017929
ABH1987w;experiment;2017-03-28-12-08-25;8,0;44,0;1000;3,0;1,0;2,0;0,0;column;1,0;False;True;False;1,06699991226;True;0,769000053406
ABH1987w;experiment;2017-03-28-12-08-25;8,0;45,0;1000;1,0;0,0;2,0;3,0;row;1,0;True;True;True;2,36800003052;True;1,43700003624
ABH1987w;experiment;2017-03-28-12-08-25;8,0;46,0;1000;3,0;0,0;1,0;2,0;row;0,0;False;False;False;2,03400015831;True;1,40000009537
ABH1987w;experiment;2017-03-28-12-08-25;8,0;47,0;1000;1,0;2,0;0,0;3,0;row;0,0;True;False;True;1,13400006294;True;1,36800003052
ABH1987w;experiment;2017-03-28-12-08-25;8,0;48,0;1000;1,0;0,0;3,0;2,0;row;1,0;True;False;False;0,868000030518;False;1,00099992752
ABH1987w;experiment;2017-03-28-12-08-25;9,0;1,0;100;2,0;0,0;3,0;1,0;row;1,0;True;False;False;1,26600003242;False;0,868000030518
ABH1987w;experiment;2017-03-28-12-08-25;9,0;2,0;100;0,0;3,0;2,0;1,0;row;0,0;True;False;True;1,46600008011;True;0,860000133514
ABH1987w;experiment;2017-03-28-12-08-25;9,0;3,0;100;2,0;0,0;1,0;3,0;column;1,0;False;False;False;1,10000014305;True;1,46899986267
ABH1987w;experiment;2017-03-28-12-08-25;9,0;4,0;100;3,0;1,0;0,0;2,0;row;1,0;True;False;False;1,09899997711;False;1,09399986267
ABH1987w;experiment;2017-03-28-12-08-25;9,0;5,0;100;1,0;0,0;3,0;2,0;column;0,0;False;True;False;1,63400006294;True;0,769999980927
ABH1987w;experiment;2017-03-28-12-08-25;9,0;6,0;100;1,0;2,0;3,0;0,0;column;0,0;True;True;True;0,998000144958;True;1,32899999619
ABH1987w;experiment;2017-03-28-12-08-25;9,0;7,0;100;0,0;3,0;2,0;1,0;column;0,0;False;False;False;1,06599998474;True;0,697999954224
ABH1987w;experiment;2017-03-28-12-08-25;9,0;8,0;100;1,0;2,0;0,0;3,0;row;0,0;True;True;True;1,70000004768;True;0,802000045776
ABH1987w;experiment;2017-03-28-12-08-25;9,0;9,0;100;3,0;0,0;2,0;1,0;row;1,0;True;True;False;1,36699986458;False;0,87299990654
ABH1987w;experiment;2017-03-28-12-08-25;9,0;10,0;100;2,0;0,0;1,0;3,0;row;1,0;True;True;True;1,06699991226;True;1,00300002098
ABH1987w;experiment;2017-03-28-12-08-25;9,0;11,0;100;1,0;2,0;0,0;3,0;column;0,0;True;True;True;1,0;True;0,667999982834
ABH1987w;experiment;2017-03-28-12-08-25;9,0;12,0;100;3,0;2,0;0,0;1,0;row;1,0;False;True;False;1,03399991989;True;1,09299993515
ABH1987w;experiment;2017-03-28-12-08-25;9,0;13,0;100;3,0;2,0;1,0;0,0;row;0,0;True;True;True;1,367000103;True;0,655999898911
ABH1987w;experiment;2017-03-28-12-08-25;9,0;14,0;100;3,0;2,0;1,0;0,0;row;1,0;False;False;False;1,367000103;True;0,90499997139
ABH1987w;experiment;2017-03-28-12-08-25;9,0;15,0;100;1,0;3,0;0,0;2,0;row;1,0;False;False;False;1,36599993706;True;0,604000091553
ABH1987w;experiment;2017-03-28-12-08-25;9,0;16,0;100;0,0;2,0;1,0;3,0;column;1,0;False;False;False;1,56599998474;True;1,40000009537
ABH1987w;experiment;2017-03-28-12-08-25;9,0;17,0;100;2,0;1,0;3,0;0,0;column;0,0;False;True;True;0,834000110626;False;1,49000000954
ABH1987w;experiment;2017-03-28-12-08-25;9,0;18,0;100;0,0;3,0;2,0;1,0;row;1,0;False;True;False;0,96799993515;True;1,36299991608
ABH1987w;experiment;2017-03-28-12-08-25;9,0;19,0;100;3,0;0,0;1,0;2,0;column;1,0;True;False;True;1,20000004768;True;0,967000007629
ABH1987w;experiment;2017-03-28-12-08-25;9,0;20,0;100;3,0;0,0;2,0;1,0;row;0,0;False;True;False;1,69900012016;True;0,52999997139
ABH1987w;experiment;2017-03-28-12-08-25;9,0;21,0;100;0,0;1,0;2,0;3,0;row;1,0;True;False;False;1,46499991417;False;1,50099992752
ABH1987w;experiment;2017-03-28-12-08-25;9,0;22,0;100;0,0;1,0;2,0;3,0;column;1,0;False;False;True;1,63400006294;False;0,633999824524
ABH1987w;experiment;2017-03-28-12-08-25;9,0;23,0;100;1,0;3,0;0,0;2,0;row;0,0;True;True;True;1,83300018311;True;1,27099990845
ABH1987w;experiment;2017-03-28-12-08-25;9,0;24,0;100;3,0;1,0;0,0;2,0;row;1,0;False;False;False;0,96599984169;True;0,769999980927
ABH1987w;experiment;2017-03-28-12-08-25;9,0;25,0;100;1,0;3,0;0,0;2,0;column;0,0;True;True;False;1,06700015068;False;1,30100011826
ABH1987w;experiment;2017-03-28-12-08-25;9,0;26,0;100;0,0;2,0;1,0;3,0;row;1,0;True;True;True;1,40100002289;True;0,969000101089
ABH1987w;experiment;2017-03-28-12-08-25;9,0;27,0;100;3,0;2,0;0,0;1,0;row;0,0;False;True;True;1,10099983215;False;1,367000103
ABH1987w;experiment;2017-03-28-12-08-25;9,0;28,0;100;1,0;3,0;2,0;0,0;row;1,0;False;True;False;1,39999985695;True;1,19199991226
ABH1987w;experiment;2017-03-28-12-08-25;9,0;29,0;100;3,0;1,0;0,0;2,0;column;1,0;False;True;True;1,23300004005;False;1,1360001564
ABH1987w;experiment;2017-03-28-12-08-25;9,0;30,0;100;1,0;2,0;0,0;3,0;row;1,0;True;False;True;1,10100007057;True;1,16599988937
ABH1987w;experiment;2017-03-28-12-08-25;9,0;31,0;100;0,0;1,0;3,0;2,0;column;1,0;False;True;False;1,09999990463;True;0,969000101089
ABH1987w;experiment;2017-03-28-12-08-25;9,0;32,0;100;2,0;0,0;3,0;1,0;row;0,0;True;True;True;1,03400015831;True;1,06900000572
ABH1987w;experiment;2017-03-28-12-08-25;9,0;33,0;100;2,0;1,0;0,0;3,0;column;1,0;False;True;False;1,23399996758;True;0,771000146866
ABH1987w;experiment;2017-03-28-12-08-25;9,0;34,0;100;1,0;2,0;3,0;0,0;row;0,0;True;False;False;1,30000019073;False;0,961000204086
ABH1987w;experiment;2017-03-28-12-08-25;9,0;35,0;100;1,0;2,0;3,0;0,0;row;1,0;False;False;False;1,46700000763;True;1,32799983025
ABH1987w;experiment;2017-03-28-12-08-25;9,0;36,0;100;0,0;1,0;2,0;3,0;row;1,0;False;False;False;1,20000004768;True;0,760999917984
ABH1987w;experiment;2017-03-28-12-08-25;9,0;37,0;100;2,0;3,0;1,0;0,0;row;1,0;True;True;True;1,23399996758;True;1,19600009918
ABH1987w;experiment;2017-03-28-12-08-25;9,0;38,0;100;3,0;0,0;1,0;2,0;row;0,0;True;True;True;1,16699981689;True;1,36800003052
ABH1987w;experiment;2017-03-28-12-08-25;9,0;39,0;100;3,0;1,0;2,0;0,0;column;0,0;True;True;False;1,06700015068;False;0,601999998093
ABH1987w;experiment;2017-03-28-12-08-25;9,0;40,0;100;3,0;2,0;1,0;0,0;row;0,0;False;False;False;1,23300004005;True;0,697000026703
ABH1987w;experiment;2017-03-28-12-08-25;9,0;41,0;100;0,0;1,0;3,0;2,0;row;0,0;True;True;True;1,23399996758;True;0,93799996376
ABH1987w;experiment;2017-03-28-12-08-25;9,0;42,0;100;0,0;2,0;1,0;3,0;row;0,0;False;True;False;1,10000014305;True;0,793999910355
ABH1987w;experiment;2017-03-28-12-08-25;9,0;43,0;100;0,0;3,0;2,0;1,0;column;0,0;True;True;False;1,63599991798;False;1,46300005913
ABH1987w;experiment;2017-03-28-12-08-25;9,0;44,0;100;2,0;1,0;0,0;3,0;column;1,0;True;True;True;1,132999897;True;0,832999944687
ABH1987w;experiment;2017-03-28-12-08-25;9,0;45,0;100;0,0;3,0;2,0;1,0;column;1,0;True;True;False;1,13300013542;False;1,23599982262
ABH1987w;experiment;2017-03-28-12-08-25;9,0;46,0;100;3,0;0,0;1,0;2,0;row;1,0;True;True;True;0,932999849319;True;0,927000045776
ABH1987w;experiment;2017-03-28-12-08-25;9,0;47,0;100;1,0;2,0;3,0;0,0;column;1,0;True;True;True;1,20199990273;True;1,3029999733
ABH1987w;experiment;2017-03-28-12-08-25;9,0;48,0;100;2,0;0,0;1,0;3,0;row;1,0;False;False;False;1,29999995232;True;1,36299991608
ABH1987w;experiment;2017-03-28-12-08-25;10,0;1,0;-100;2,0;0,0;1,0;3,0;row;0,0;False;True;False;1,34800004959;True;1,12699985504
ABH1987w;experiment;2017-03-28-12-08-25;10,0;2,0;-100;3,0;1,0;2,0;0,0;column;1,0;False;True;False;1,54999995232;True;0,694000005722
ABH1987w;experiment;2017-03-28-12-08-25;10,0;3,0;-100;1,0;0,0;3,0;2,0;row;1,0;True;True;True;1,25;True;0,52899980545
ABH1987w;experiment;2017-03-28-12-08-25;10,0;4,0;-100;3,0;0,0;2,0;1,0;column;0,0;False;True;False;0,851000070572;True;1,10000014305
ABH1987w;experiment;2017-03-28-12-08-25;10,0;5,0;-100;1,0;2,0;0,0;3,0;row;1,0;False;False;False;1,44999980927;True;0,761999845505
ABH1987w;experiment;2017-03-28-12-08-25;10,0;6,0;-100;3,0;2,0;1,0;0,0;row;1,0;True;False;True;1,14800000191;True;0,56200003624
ABH1987w;experiment;2017-03-28-12-08-25;10,0;7,0;-100;0,0;1,0;3,0;2,0;row;1,0;True;True;True;1,01699995995;True;0,606000185013
ABH1987w;experiment;2017-03-28-12-08-25;10,0;8,0;-100;1,0;0,0;2,0;3,0;row;0,0;False;True;False;1,18400001526;True;0,801000118256
ABH1987w;experiment;2017-03-28-12-08-25;10,0;9,0;-100;1,0;0,0;2,0;3,0;row;1,0;True;True;False;1,25;False;1,23099994659
ABH1987w;experiment;2017-03-28-12-08-25;10,0;10,0;-100;0,0;1,0;3,0;2,0;column;1,0;False;True;False;1,51699995995;True;1,39400005341
ABH1987w;experiment;2017-03-28-12-08-25;10,0;11,0;-100;1,0;0,0;3,0;2,0;row;0,0;False;False;False;1,28400015831;True;1,33500003815
ABH1987w;experiment;2017-03-28-12-08-25;10,0;12,0;-100;3,0;0,0;2,0;1,0;column;1,0;False;True;False;1,31599998474;True;1,26900005341
ABH1987w;experiment;2017-03-28-12-08-25;10,0;13,0;-100;3,0;2,0;1,0;0,0;column;1,0;False;True;False;1,08299994469;True;0,933000087738
ABH1987w;experiment;2017-03-28-12-08-25;10,0;14,0;-100;1,0;2,0;3,0;0,0;row;0,0;False;False;False;1,21500015259;True;1,26899981499
ABH1987w;experiment;2017-03-28-12-08-25;10,0;15,0;-100;0,0;1,0;2,0;3,0;row;0,0;False;True;False;0,950000047684;True;0,606000185013
ABH1987w;experiment;2017-03-28-12-08-25;10,0;16,0;-100;2,0;3,0;1,0;0,0;row;0,0;False;True;False;1,11599993706;True;1,23200011253
ABH1987w;experiment;2017-03-28-12-08-25;10,0;17,0;-100;1,0;3,0;0,0;2,0;row;1,0;True;True;True;1,08299994469;True;1,4279999733
ABH1987w;experiment;2017-03-28-12-08-25;10,0;18,0;-100;0,0;2,0;3,0;1,0;column;0,0;False;False;False;1,91799998283;True;1,43700003624
ABH1987w;experiment;2017-03-28-12-08-25;10,0;19,0;-100;2,0;0,0;1,0;3,0;column;1,0;False;True;True;1,38300013542;False;1,23300004005
ABH1987w;experiment;2017-03-28-12-08-25;10,0;20,0;-100;1,0;2,0;3,0;0,0;row;0,0;True;True;True;1,51400017738;True;0,595999956131
ABH1987w;experiment;2017-03-28-12-08-25;10,0;21,0;-100;3,0;0,0;2,0;1,0;row;1,0;True;False;False;1,15000009537;False;1,1970000267
ABH1987w;experiment;2017-03-28-12-08-25;10,0;22,0;-100;2,0;1,0;0,0;3,0;row;0,0;False;True;False;2,24900007248;True;0,53400015831
ABH1987w;experiment;2017-03-28-12-08-25;10,0;23,0;-100;2,0;0,0;1,0;3,0;row;1,0;True;False;True;1,25;True;1,33799982071
ABH1987w;experiment;2017-03-28-12-08-25;10,0;24,0;-100;1,0;3,0;2,0;0,0;row;0,0;False;False;False;0,983999967575;True;1,00300002098
ABH1987w;experiment;2017-03-28-12-08-25;10,0;25,0;-100;3,0;0,0;1,0;2,0;row;0,0;False;False;False;1,18300008774;True;1,10000014305
ABH1987w;experiment;2017-03-28-12-08-25;10,0;26,0;-100;0,0;2,0;3,0;1,0;row;1,0;True;True;False;1,117000103;False;0,936000108719
ABH1987w;experiment;2017-03-28-12-08-25;10,0;27,0;-100;2,0;1,0;0,0;3,0;column;0,0;True;False;True;1,31700015068;True;1,16999983788
ABH1987w;experiment;2017-03-28-12-08-25;10,0;28,0;-100;2,0;3,0;1,0;0,0;column;0,0;False;True;True;1,85000014305;False;1,50200009346
ABH1987w;experiment;2017-03-28-12-08-25;10,0;29,0;-100;2,0;1,0;0,0;3,0;column;1,0;True;False;False;1,41700005531;False;0,632999897003
ABH1987w;experiment;2017-03-28-12-08-25;10,0;30,0;-100;0,0;3,0;1,0;2,0;column;1,0;False;False;True;1,71599984169;False;1,30500006676
ABH1987w;experiment;2017-03-28-12-08-25;10,0;31,0;-100;3,0;1,0;0,0;2,0;row;1,0;True;False;True;1,117000103;True;1,26300001144
ABH1987w;experiment;2017-03-28-12-08-25;10,0;32,0;-100;2,0;0,0;1,0;3,0;column;1,0;True;False;True;1,78399991989;True;1,52600002289
ABH1987w;experiment;2017-03-28-12-08-25;10,0;33,0;-100;3,0;2,0;1,0;0,0;column;0,0;True;False;False;1,25;False;0,839999914169
ABH1987w;experiment;2017-03-28-12-08-25;10,0;34,0;-100;0,0;1,0;3,0;2,0;column;1,0;True;True;True;1,18399977684;True;0,969999790192
ABH1987w;experiment;2017-03-28-12-08-25;10,0;35,0;-100;3,0;1,0;0,0;2,0;column;0,0;False;True;False;1,91499996185;True;1,10400009155
ABH1987w;experiment;2017-03-28-12-08-25;10,0;36,0;-100;1,0;0,0;3,0;2,0;column;0,0;True;True;True;2,0490000248;True;0,602999925613
ABH1987w;experiment;2017-03-28-12-08-25;10,0;37,0;-100;2,0;0,0;1,0;3,0;column;0,0;False;False;False;0,881000041962;True;1,50200009346
ABH1987w;experiment;2017-03-28-12-08-25;10,0;38,0;-100;3,0;2,0;1,0;0,0;row;0,0;False;True;False;1,31599998474;True;0,769999980927
ABH1987w;experiment;2017-03-28-12-08-25;10,0;39,0;-100;2,0;3,0;0,0;1,0;row;0,0;False;True;False;0,81600022316;True;0,831000089645
ABH1987w;experiment;2017-03-28-12-08-25;10,0;40,0;-100;3,0;2,0;1,0;0,0;column;1,0;True;True;False;1,14800000191;False;0,766000032425
ABH1987w;experiment;2017-03-28-12-08-25;10,0;41,0;-100;1,0;3,0;2,0;0,0;row;0,0;True;True;True;1,0490000248;True;1,29800009727
ABH1987w;experiment;2017-03-28-12-08-25;10,0;42,0;-100;3,0;0,0;2,0;1,0;column;1,0;True;False;False;1,18299984932;False;0,735999822617
ABH1987w;experiment;2017-03-28-12-08-25;10,0;43,0;-100;1,0;3,0;0,0;2,0;row;0,0;False;False;False;0,917000055313;True;1,38900017738
ABH1987w;experiment;2017-03-28-12-08-25;10,0;44,0;-100;2,0;1,0;0,0;3,0;row;1,0;True;False;True;1,51699995995;True;0,762000083923
ABH1987w;experiment;2017-03-28-12-08-25;10,0;45,0;-100;2,0;1,0;3,0;0,0;row;1,0;True;False;True;1,41600012779;True;1,00199985504
ABH1987w;experiment;2017-03-28-12-08-25;10,0;46,0;-100;2,0;3,0;0,0;1,0;column;1,0;True;True;True;1,54999995232;True;0,894999980927
ABH1987w;experiment;2017-03-28-12-08-25;10,0;47,0;-100;0,0;2,0;1,0;3,0;column;1,0;False;True;False;0,983000040054;True;1,33599996567
ABH1987w;experiment;2017-03-28-12-08-25;10,0;48,0;-100;0,0;3,0;2,0;1,0;column;1,0;True;True;True;1,31599998474;True;1,10299992561
ABH1987w;experiment;2017-03-28-12-08-25;11,0;1,0;100;0,0;2,0;1,0;3,0;row;1,0;False;True;False;1,76600003242;True;1,3710000515
ABH1987w;experiment;2017-03-28-12-08-25;11,0;2,0;100;2,0;1,0;3,0;0,0;row;0,0;False;False;False;0,96599984169;True;1,43600010872
ABH1987w;experiment;2017-03-28-12-08-25;11,0;3,0;100;0,0;3,0;1,0;2,0;column;1,0;True;True;False;1,26600003242;False;0,838999986649
ABH1987w;experiment;2017-03-28-12-08-25;11,0;4,0;100;2,0;3,0;1,0;0,0;column;1,0;False;False;False;1,26699995995;True;0,56200003624
ABH1987w;experiment;2017-03-28-12-08-25;11,0;5,0;100;3,0;2,0;1,0;0,0;column;1,0;True;True;True;0,932999849319;True;0,692999839783
ABH1987w;experiment;2017-03-28-12-08-25;11,0;6,0;100;2,0;3,0;1,0;0,0;column;0,0;True;False;False;1,39999985695;False;1,12199997902
ABH1987w;experiment;2017-03-28-12-08-25;11,0;7,0;100;1,0;3,0;2,0;0,0;column;1,0;False;False;False;1,16700005531;True;0,667999982834
ABH1987w;experiment;2017-03-28-12-08-25;11,0;8,0;100;2,0;0,0;1,0;3,0;row;0,0;True;False;True;1,29999995232;True;1,08800005913
ABH1987w;experiment;2017-03-28-12-08-25;11,0;9,0;100;1,0;2,0;0,0;3,0;column;1,0;False;True;False;1,33200001717;True;1,13599991798
ABH1987w;experiment;2017-03-28-12-08-25;11,0;10,0;100;0,0;1,0;3,0;2,0;column;0,0;True;True;False;1,367000103;False;0,799000024796
ABH1987w;experiment;2017-03-28-12-08-25;11,0;11,0;100;1,0;3,0;0,0;2,0;row;0,0;False;True;True;1,26699995995;False;1,52699995041
ABH1987w;experiment;2017-03-28-12-08-25;11,0;12,0;100;0,0;3,0;1,0;2,0;row;1,0;False;False;False;1,36599993706;True;1,2380001545
ABH1987w;experiment;2017-03-28-12-08-25;11,0;13,0;100;0,0;3,0;1,0;2,0;column;0,0;True;True;False;1,30100011826;False;0,866999864578
ABH1987w;experiment;2017-03-28-12-08-25;11,0;14,0;100;0,0;1,0;3,0;2,0;row;1,0;False;True;False;1,26699995995;True;0,792000055313
ABH1987w;experiment;2017-03-28-12-08-25;11,0;15,0;100;3,0;2,0;0,0;1,0;column;1,0;True;False;False;1,06599998474;False;0,5640001297
ABH1987w;experiment;2017-03-28-12-08-25;11,0;16,0;100;2,0;0,0;1,0;3,0;row;0,0;False;False;True;1,26599979401;False;1,09600019455
ABH1987w;experiment;2017-03-28-12-08-25;11,0;17,0;100;3,0;2,0;1,0;0,0;column;0,0;False;True;False;1,03299999237;True;0,669999837875
ABH1987w;experiment;2017-03-28-12-08-25;11,0;18,0;100;0,0;2,0;1,0;3,0;row;0,0;True;True;False;1,06700015068;False;1,43099999428
ABH1987w;experiment;2017-03-28-12-08-25;11,0;19,0;100;0,0;1,0;2,0;3,0;column;1,0;True;True;False;1,10000014305;False;0,59500002861
ABH1987w;experiment;2017-03-28-12-08-25;11,0;20,0;100;3,0;1,0;0,0;2,0;row;0,0;True;True;False;1,09999990463;False;1,13499999046
ABH1987w;experiment;2017-03-28-12-08-25;11,0;21,0;100;2,0;1,0;3,0;0,0;row;0,0;True;False;True;1,23399996758;True;1,16300010681
ABH1987w;experiment;2017-03-28-12-08-25;11,0;22,0;100;0,0;2,0;3,0;1,0;row;0,0;False;False;False;1,132999897;True;1,39300012589
ABH1987w;experiment;2017-03-28-12-08-25;11,0;23,0;100;3,0;0,0;2,0;1,0;column;0,0;False;False;False;1,13399982452;True;1,49599981308
ABH1987w;experiment;2017-03-28-12-08-25;11,0;24,0;100;3,0;1,0;0,0;2,0;column;0,0;False;False;False;1,56700015068;True;1,36999988556
ABH1987w;experiment;2017-03-28-12-08-25;11,0;25,0;100;1,0;2,0;0,0;3,0;column;0,0;False;True;False;1,10000014305;True;1,43300008774
ABH1987w;experiment;2017-03-28-12-08-25;11,0;26,0;100;1,0;0,0;3,0;2,0;row;0,0;False;False;False;0,967000007629;True;0,934000015259
ABH1987w;experiment;2017-03-28-12-08-25;11,0;27,0;100;0,0;2,0;3,0;1,0;row;0,0;True;True;True;1,26600003242;True;1,29400014877
ABH1987w;experiment;2017-03-28-12-08-25;11,0;28,0;100;1,0;3,0;0,0;2,0;row;1,0;True;True;False;1,46600008011;False;0,996000051498
ABH1987w;experiment;2017-03-28-12-08-25;11,0;29,0;100;2,0;3,0;0,0;1,0;column;0,0;True;True;True;1,36500000954;True;0,705999851227
ABH1987w;experiment;2017-03-28-12-08-25;11,0;30,0;100;3,0;1,0;0,0;2,0;column;1,0;True;True;True;1,66600012779;True;0,971999883652
ABH1987w;experiment;2017-03-28-12-08-25;11,0;31,0;100;0,0;3,0;1,0;2,0;row;0,0;True;True;False;1,23399996758;False;1,09099984169
ABH1987w;experiment;2017-03-28-12-08-25;11,0;32,0;100;0,0;1,0;3,0;2,0;row;1,0;True;False;False;1,43300008774;False;1,13499999046
ABH1987w;experiment;2017-03-28-12-08-25;11,0;33,0;100;3,0;0,0;2,0;1,0;row;1,0;False;True;True;1,13199996948;False;0,801000118256
ABH1987w;experiment;2017-03-28-12-08-25;11,0;34,0;100;2,0;1,0;3,0;0,0;column;1,0;False;False;True;1,2009999752;False;1,30599999428
ABH1987w;experiment;2017-03-28-12-08-25;11,0;35,0;100;2,0;0,0;3,0;1,0;column;1,0;False;True;False;1,56599998474;True;0,762000083923
ABH1987w;experiment;2017-03-28-12-08-25;11,0;36,0;100;0,0;3,0;1,0;2,0;row;0,0;False;False;False;1,20000004768;True;0,5609998703
ABH1987w;experiment;2017-03-28-12-08-25;11,0;37,0;100;1,0;3,0;2,0;0,0;column;0,0;True;True;True;1,0;True;0,701999902725
ABH1987w;experiment;2017-03-28-12-08-25;11,0;38,0;100;2,0;1,0;0,0;3,0;column;0,0;False;False;False;0,799999952316;True;0,631999969482
ABH1987w;experiment;2017-03-28-12-08-25;11,0;39,0;100;3,0;0,0;1,0;2,0;column;1,0;False;True;False;1,06599998474;True;0,930000066757
ABH1987w;experiment;2017-03-28-12-08-25;11,0;40,0;100;2,0;3,0;1,0;0,0;row;0,0;True;True;True;0,867000102997;True;0,828999996185
ABH1987w;experiment;2017-03-28-12-08-25;11,0;41,0;100;3,0;1,0;2,0;0,0;column;0,0;False;False;False;0,832999944687;True;0,868999958038
ABH1987w;experiment;2017-03-28-12-08-25;11,0;42,0;100;2,0;3,0;0,0;1,0;row;0,0;True;False;True;1,23300004005;True;1,03499984741
ABH1987w;experiment;2017-03-28-12-08-25;11,0;43,0;100;1,0;2,0;0,0;3,0;column;1,0;True;True;False;0,832999944687;False;1,49900007248
ABH1987w;experiment;2017-03-28-12-08-25;11,0;44,0;100;0,0;1,0;2,0;3,0;row;0,0;False;True;False;0,865999937057;True;1,45900011063
ABH1987w;experiment;2017-03-28-12-08-25;11,0;45,0;100;1,0;3,0;2,0;0,0;column;0,0;False;True;False;1,09999990463;True;0,535000085831
ABH1987w;experiment;2017-03-28-12-08-25;11,0;46,0;100;1,0;0,0;3,0;2,0;row;1,0;False;False;True;1,16700005531;False;0,930999994278
ABH1987w;experiment;2017-03-28-12-08-25;11,0;47,0;100;2,0;0,0;3,0;1,0;column;1,0;True;True;True;1,56699991226;True;0,838000059128
ABH1987w;experiment;2017-03-28-12-08-25;11,0;48,0;100;0,0;1,0;2,0;3,0;column;0,0;True;True;True;0,967000007629;True;0,702000141144
ABH1987w;experiment;2017-03-28-12-08-25;12,0;1,0;1000;1,0;0,0;2,0;3,0;row;0,0;False;True;False;1,33299994469;True;1,40600013733
ABH1987w;experiment;2017-03-28-12-08-25;12,0;2,0;1000;3,0;1,0;0,0;2,0;column;0,0;False;False;False;1,09999990463;True;1,06500005722
ABH1987w;experiment;2017-03-28-12-08-25;12,0;3,0;1000;0,0;1,0;2,0;3,0;row;0,0;False;False;False;1,19999980927;True;0,694999933243
ABH1987w;experiment;2017-03-28-12-08-25;12,0;4,0;1000;1,0;0,0;2,0;3,0;row;0,0;True;False;True;1,70000004768;True;1,36899995804
ABH1987w;experiment;2017-03-28-12-08-25;12,0;5,0;1000;3,0;0,0;2,0;1,0;row;1,0;False;False;False;1,86599993706;True;1,03400015831
ABH1987w;experiment;2017-03-28-12-08-25;12,0;6,0;1000;0,0;1,0;3,0;2,0;row;1,0;True;False;False;1,43300008774;False;1,0039999485
ABH1987w;experiment;2017-03-28-12-08-25;12,0;7,0;1000;1,0;2,0;3,0;0,0;row;0,0;False;False;True;1,83299994469;False;0,902000188828
ABH1987w;experiment;2017-03-28-12-08-25;12,0;8,0;1000;1,0;2,0;3,0;0,0;row;1,0;True;False;False;1,03399991989;False;0,967000007629
ABH1987w;experiment;2017-03-28-12-08-25;12,0;9,0;1000;2,0;0,0;3,0;1,0;column;1,0;False;True;True;1,03299999237;False;1,30500006676
ABH1987w;experiment;2017-03-28-12-08-25;12,0;10,0;1000;3,0;1,0;0,0;2,0;row;1,0;False;True;False;1,66600012779;True;1,39400005341
ABH1987w;experiment;2017-03-28-12-08-25;12,0;11,0;1000;3,0;2,0;0,0;1,0;column;1,0;False;True;False;1,03299999237;True;0,867000102997
ABH1987w;experiment;2017-03-28-12-08-25;12,0;12,0;1000;1,0;2,0;0,0;3,0;column;1,0;True;False;False;1,83299994469;False;0,59600019455
ABH1987w;experiment;2017-03-28-12-08-25;12,0;13,0;1000;2,0;1,0;3,0;0,0;column;1,0;True;False;True;0,933000087738;True;0,77799987793
ABH1987w;experiment;2017-03-28-12-08-25;12,0;14,0;1000;0,0;3,0;1,0;2,0;column;1,0;False;True;False;1,19799995422;True;1,13499999046
ABH1987w;experiment;2017-03-28-12-08-25;12,0;15,0;1000;3,0;2,0;0,0;1,0;column;0,0;True;True;False;1,33299994469;False;0,834999799728
ABH1987w;experiment;2017-03-28-12-08-25;12,0;16,0;1000;1,0;0,0;2,0;3,0;row;1,0;False;False;False;1,76699995995;True;1,09500002861
ABH1987w;experiment;2017-03-28-12-08-25;12,0;17,0;1000;2,0;1,0;3,0;0,0;row;0,0;True;False;True;2,40000009537;True;0,538000106812
ABH1987w;experiment;2017-03-28-12-08-25;12,0;18,0;1000;3,0;0,0;1,0;2,0;column;1,0;True;False;True;1,40100002289;True;1,50099992752
ABH1987w;experiment;2017-03-28-12-08-25;12,0;19,0;1000;3,0;1,0;2,0;0,0;column;0,0;True;True;True;1,10000014305;True;0,768000125885
ABH1987w;experiment;2017-03-28-12-08-25;12,0;20,0;1000;3,0;2,0;0,0;1,0;row;1,0;True;True;False;1,49900007248;False;1,23699998856
ABH1987w;experiment;2017-03-28-12-08-25;12,0;21,0;1000;3,0;2,0;1,0;0,0;row;1,0;True;False;False;1,29999995232;False;0,661000013351
ABH1987w;experiment;2017-03-28-12-08-25;12,0;22,0;1000;2,0;0,0;3,0;1,0;row;1,0;False;True;False;1,73300004005;True;0,990999937057
ABH1987w;experiment;2017-03-28-12-08-25;12,0;23,0;1000;2,0;3,0;0,0;1,0;column;0,0;False;True;True;1,96700000763;False;0,566999912262
ABH1987w;experiment;2017-03-28-12-08-25;12,0;24,0;1000;0,0;3,0;2,0;1,0;column;0,0;True;True;True;0,832999944687;True;0,867000102997
ABH1987w;experiment;2017-03-28-12-08-25;12,0;25,0;1000;1,0;3,0;0,0;2,0;column;1,0;False;True;False;1,09999990463;True;0,859000205994
ABH1987w;experiment;2017-03-28-12-08-25;12,0;26,0;1000;1,0;0,0;2,0;3,0;column;0,0;False;False;False;0,866000175476;True;1,00199985504
ABH1987w;experiment;2017-03-28-12-08-25;12,0;27,0;1000;1,0;3,0;0,0;2,0;column;0,0;True;True;True;1,06700015068;True;1,3259999752
ABH1987w;experiment;2017-03-28-12-08-25;12,0;28,0;1000;0,0;1,0;2,0;3,0;row;1,0;False;False;False;1,09999990463;True;0,654000043869
ABH1987w;experiment;2017-03-28-12-08-25;12,0;29,0;1000;2,0;3,0;0,0;1,0;row;0,0;False;True;True;1,5;False;0,706000089645
ABH1987w;experiment;2017-03-28-12-08-25;12,0;30,0;1000;2,0;1,0;0,0;3,0;column;1,0;False;True;False;0,833000183105;True;1,50099992752
ABH1987w;experiment;2017-03-28-12-08-25;12,0;31,0;1000;2,0;1,0;0,0;3,0;row;1,0;False;False;False;1,19899988174;True;0,957000017166
ABH1987w;experiment;2017-03-28-12-08-25;12,0;32,0;1000;2,0;1,0;3,0;0,0;row;0,0;False;False;False;1,36699986458;True;0,733999967575
ABH1987w;experiment;2017-03-28-12-08-25;12,0;33,0;1000;3,0;1,0;2,0;0,0;column;1,0;True;True;False;1,16600012779;False;0,960999965668
ABH1987w;experiment;2017-03-28-12-08-25;12,0;34,0;1000;0,0;3,0;2,0;1,0;row;0,0;True;True;True;1,29999995232;True;1,15999984741
ABH1987w;experiment;2017-03-28-12-08-25;12,0;35,0;1000;1,0;3,0;0,0;2,0;row;0,0;True;False;False;1,26699995995;False;1,19799995422
ABH1987w;experiment;2017-03-28-12-08-25;12,0;36,0;1000;2,0;3,0;0,0;1,0;column;1,0;False;True;False;0,866000175476;True;0,726999998093
ABH1987w;experiment;2017-03-28-12-08-25;12,0;37,0;1000;2,0;0,0;1,0;3,0;row;0,0;True;False;True;1,10000014305;True;0,535000085831
ABH1987w;experiment;2017-03-28-12-08-25;12,0;38,0;1000;3,0;1,0;0,0;2,0;row;0,0;False;True;False;1,03400015831;True;1,50300002098
ABH1987w;experiment;2017-03-28-12-08-25;12,0;39,0;1000;1,0;2,0;3,0;0,0;column;1,0;True;False;True;1,23300004005;True;1,22900009155
ABH1987w;experiment;2017-03-28-12-08-25;12,0;40,0;1000;3,0;2,0;1,0;0,0;column;0,0;False;False;False;1,0;True;1,30099987984
ABH1987w;experiment;2017-03-28-12-08-25;12,0;41,0;1000;3,0;1,0;2,0;0,0;row;0,0;True;True;True;1,06700015068;True;0,732000112534
ABH1987w;experiment;2017-03-28-12-08-25;12,0;42,0;1000;0,0;2,0;3,0;1,0;column;0,0;False;False;False;1,20000004768;True;0,960999965668
ABH1987w;experiment;2017-03-28-12-08-25;12,0;43,0;1000;2,0;1,0;3,0;0,0;column;0,0;True;False;True;1,06700015068;True;1,23300004005
ABH1987w;experiment;2017-03-28-12-08-25;12,0;44,0;1000;2,0;1,0;3,0;0,0;row;1,0;True;False;False;0,932999849319;False;1,16100001335
ABH1987w;experiment;2017-03-28-12-08-25;12,0;45,0;1000;1,0;2,0;0,0;3,0;column;1,0;False;True;False;1,10000014305;True;0,605000019073
ABH1987w;experiment;2017-03-28-12-08-25;12,0;46,0;1000;0,0;1,0;3,0;2,0;row;0,0;True;False;True;1,23300004005;True;1,32700014114
ABH1987w;experiment;2017-03-28-12-08-25;12,0;47,0;1000;0,0;1,0;3,0;2,0;column;0,0;True;False;False;0,766000032425;False;1,52999997139
ABH1987w;experiment;2017-03-28-12-08-25;12,0;48,0;1000;0,0;2,0;1,0;3,0;row;1,0;True;True;True;1,132999897;True;0,600999832153
ABH1987w;experiment;2017-03-28-12-08-25;13,0;1,0;1000;0,0;2,0;3,0;1,0;row;0,0;True;False;False;1,73299980164;False;0,852999925613
ABH1987w;experiment;2017-03-28-12-08-25;13,0;2,0;1000;0,0;2,0;3,0;1,0;row;0,0;True;True;True;2,03599977493;True;1,43000006676
ABH1987w;experiment;2017-03-28-12-08-25;13,0;3,0;1000;2,0;3,0;1,0;0,0;row;1,0;True;True;False;1,36599993706;False;1,30100011826
ABH1987w;experiment;2017-03-28-12-08-25;13,0;4,0;1000;3,0;1,0;2,0;0,0;row;1,0;False;True;False;0,832999944687;True;1,06900000572
ABH1987w;experiment;2017-03-28-12-08-25;13,0;5,0;1000;2,0;3,0;1,0;0,0;column;0,0;False;True;False;1,20000004768;True;1,4359998703
ABH1987w;experiment;2017-03-28-12-08-25;13,0;6,0;1000;2,0;0,0;1,0;3,0;column;1,0;True;False;True;1,16700005531;True;0,693000078201
ABH1987w;experiment;2017-03-28-12-08-25;13,0;7,0;1000;1,0;2,0;0,0;3,0;column;0,0;False;False;False;0,934000015259;True;1,20299983025
ABH1987w;experiment;2017-03-28-12-08-25;13,0;8,0;1000;1,0;0,0;3,0;2,0;column;0,0;False;True;False;1,46700000763;True;1,50300002098
ABH1987w;experiment;2017-03-28-12-08-25;13,0;9,0;1000;1,0;0,0;3,0;2,0;column;1,0;True;False;False;1,70000004768;False;1,13399982452
ABH1987w;experiment;2017-03-28-12-08-25;13,0;10,0;1000;3,0;1,0;2,0;0,0;column;0,0;False;False;False;1,06700015068;True;0,898999929428
ABH1987w;experiment;2017-03-28-12-08-25;13,0;11,0;1000;0,0;2,0;1,0;3,0;column;1,0;True;True;False;1,29800009727;False;0,660000085831
ABH1987w;experiment;2017-03-28-12-08-25;13,0;12,0;1000;1,0;2,0;0,0;3,0;row;1,0;True;True;False;1,16700005531;False;0,802999973297
ABH1987w;experiment;2017-03-28-12-08-25;13,0;13,0;1000;0,0;3,0;2,0;1,0;row;0,0;False;True;False;1,39800000191;True;1,20599985123
ABH1987w;experiment;2017-03-28-12-08-25;13,0;14,0;1000;1,0;3,0;2,0;0,0;column;1,0;False;True;False;1,0;True;1,33500003815
ABH1987w;experiment;2017-03-28-12-08-25;13,0;15,0;1000;0,0;1,0;3,0;2,0;column;1,0;False;False;False;1,0;True;1,10400009155
ABH1987w;experiment;2017-03-28-12-08-25;13,0;16,0;1000;3,0;1,0;2,0;0,0;row;0,0;False;True;False;1,49800014496;True;1,40400004387
ABH1987w;experiment;2017-03-28-12-08-25;13,0;17,0;1000;3,0;0,0;1,0;2,0;row;1,0;True;False;False;1,53500008583;False;1,03400015831
ABH1987w;experiment;2017-03-28-12-08-25;13,0;18,0;1000;2,0;0,0;3,0;1,0;column;0,0;False;False;False;1,46700000763;True;0,967000007629
ABH1987w;experiment;2017-03-28-12-08-25;13,0;19,0;1000;3,0;0,0;2,0;1,0;row;1,0;True;False;True;1,5;True;0,633000135422
ABH1987w;experiment;2017-03-28-12-08-25;13,0;20,0;1000;3,0;0,0;1,0;2,0;row;0,0;True;False;False;0,832000017166;False;1,40199995041
ABH1987w;experiment;2017-03-28-12-08-25;13,0;21,0;1000;0,0;1,0;3,0;2,0;row;1,0;False;False;False;1,00099992752;True;0,930000066757
ABH1987w;experiment;2017-03-28-12-08-25;13,0;22,0;1000;0,0;3,0;1,0;2,0;column;0,0;False;True;False;0,832999944687;True;0,858999967575
ABH1987w;experiment;2017-03-28-12-08-25;13,0;23,0;1000;3,0;1,0;0,0;2,0;column;1,0;True;True;True;1,66600012779;True;1,39600014687
ABH1987w;experiment;2017-03-28-12-08-25;13,0;24,0;1000;2,0;0,0;3,0;1,0;column;0,0;True;True;True;0,963000059128;True;0,700000047684
ABH1987w;experiment;2017-03-28-12-08-25;13,0;25,0;1000;1,0;3,0;2,0;0,0;row;1,0;False;True;False;1,06699991226;True;1,00300002098
ABH1987w;experiment;2017-03-28-12-08-25;13,0;26,0;1000;0,0;1,0;2,0;3,0;column;1,0;False;False;False;0,700000047684;True;0,633999824524
ABH1987w;experiment;2017-03-28-12-08-25;13,0;27,0;1000;0,0;1,0;2,0;3,0;row;0,0;True;False;True;1,0;True;1,46000003815
ABH1987w;experiment;2017-03-28-12-08-25;13,0;28,0;1000;3,0;2,0;1,0;0,0;row;1,0;False;False;False;0,832999944687;True;0,888999938965
ABH1987w;experiment;2017-03-28-12-08-25;13,0;29,0;1000;2,0;0,0;3,0;1,0;column;1,0;True;False;True;0,999000072479;True;0,828999996185
ABH1987w;experiment;2017-03-28-12-08-25;13,0;30,0;1000;1,0;3,0;2,0;0,0;row;0,0;True;False;False;0,599999904633;False;1,39899992943
ABH1987w;experiment;2017-03-28-12-08-25;13,0;31,0;1000;2,0;1,0;3,0;0,0;column;0,0;False;False;False;0,799999952316;True;1,00200009346
ABH1987w;experiment;2017-03-28-12-08-25;13,0;32,0;1000;3,0;1,0;0,0;2,0;row;1,0;True;True;True;0,733000040054;True;1,19400000572
ABH1987w;experiment;2017-03-28-12-08-25;13,0;33,0;1000;1,0;0,0;3,0;2,0;row;1,0;False;True;False;0,932999849319;True;0,68799996376
ABH1987w;experiment;2017-03-28-12-08-25;13,0;34,0;1000;0,0;2,0;1,0;3,0;column;0,0;True;True;True;0,934000015259;True;0,661999940872
ABH1987w;experiment;2017-03-28-12-08-25;13,0;35,0;1000;0,0;3,0;2,0;1,0;column;1,0;True;False;False;0,766999959946;False;1,43000006676
ABH1987w;experiment;2017-03-28-12-08-25;13,0;36,0;1000;2,0;3,0;1,0;0,0;row;0,0;False;True;True;0,966000080109;False;1,48799991608
ABH1987w;experiment;2017-03-28-12-08-25;13,0;37,0;1000;3,0;0,0;2,0;1,0;column;1,0;True;True;False;0,797999858856;False;1,16899991035
ABH1987w;experiment;2017-03-28-12-08-25;13,0;38,0;1000;1,0;2,0;3,0;0,0;row;1,0;False;False;False;0,832999944687;True;0,733999967575
ABH1987w;experiment;2017-03-28-12-08-25;13,0;39,0;1000;2,0;0,0;1,0;3,0;row;0,0;False;True;False;0,634000062943;True;1,13000011444
ABH1987w;experiment;2017-03-28-12-08-25;13,0;40,0;1000;0,0;3,0;1,0;2,0;row;1,0;False;False;True;0,733999967575;False;0,735000133514
ABH1987w;experiment;2017-03-28-12-08-25;13,0;41,0;1000;1,0;0,0;2,0;3,0;column;0,0;True;False;False;0,866000175476;False;0,699000120163
ABH1987w;experiment;2017-03-28-12-08-25;13,0;42,0;1000;1,0;3,0;2,0;0,0;column;0,0;True;True;True;1,0;True;1,46199989319
ABH1987w;experiment;2017-03-28-12-08-25;13,0;43,0;1000;0,0;3,0;1,0;2,0;column;0,0;True;True;False;1,06599998474;False;0,601000070572
ABH1987w;experiment;2017-03-28-12-08-25;13,0;44,0;1000;2,0;0,0;1,0;3,0;row;1,0;False;False;False;1,56699991226;True;1,13400006294
ABH1987w;experiment;2017-03-28-12-08-25;13,0;45,0;1000;2,0;1,0;0,0;3,0;column;0,0;False;False;False;1,16499996185;True;0,667000055313
ABH1987w;experiment;2017-03-28-12-08-25;13,0;46,0;1000;3,0;2,0;1,0;0,0;column;1,0;False;False;True;1,16600012779;False;1,13899993896
ABH1987w;experiment;2017-03-28-12-08-25;13,0;47,0;1000;1,0;3,0;2,0;0,0;row;1,0;True;True;True;1,06699991226;True;1,03199982643
ABH1987w;experiment;2017-03-28-12-08-25;13,0;48,0;1000;1,0;2,0;3,0;0,0;column;0,0;False;True;False;0,932999849319;True;0,569999933243
ABH1987w;experiment;2017-03-28-12-08-25;14,0;1,0;-100;1,0;2,0;0,0;3,0;column;1,0;False;False;False;1,18400001526;True;0,962000131607
ABH1987w;experiment;2017-03-28-12-08-25;14,0;2,0;-100;1,0;2,0;0,0;3,0;column;1,0;False;True;False;1,21600008011;True;1,20299983025
ABH1987w;experiment;2017-03-28-12-08-25;14,0;3,0;-100;0,0;3,0;2,0;1,0;column;0,0;False;False;False;1,15000009537;True;1,2349998951
ABH1987w;experiment;2017-03-28-12-08-25;14,0;4,0;-100;0,0;2,0;1,0;3,0;row;1,0;False;True;False;1,11599993706;True;0,930999994278
ABH1987w;experiment;2017-03-28-12-08-25;14,0;5,0;-100;1,0;0,0;3,0;2,0;row;1,0;False;False;False;1,68400001526;True;1,0680000782
ABH1987w;experiment;2017-03-28-12-08-25;14,0;6,0;-100;2,0;1,0;3,0;0,0;row;1,0;False;True;False;0,981999874115;True;0,99599981308
ABH1987w;experiment;2017-03-28-12-08-25;14,0;7,0;-100;0,0;2,0;3,0;1,0;row;0,0;False;False;False;1,21600008011;True;1,06900000572
ABH1987w;experiment;2017-03-28-12-08-25;14,0;8,0;-100;1,0;0,0;2,0;3,0;row;0,0;True;False;True;1,21600008011;True;1,367000103
ABH1987w;experiment;2017-03-28-12-08-25;14,0;9,0;-100;2,0;1,0;3,0;0,0;column;1,0;False;True;False;0,950000047684;True;0,961999893188
ABH1987w;experiment;2017-03-28-12-08-25;14,0;10,0;-100;2,0;3,0;1,0;0,0;row;1,0;False;True;False;1,01699995995;True;1,33899998665
ABH1987w;experiment;2017-03-28-12-08-25;14,0;11,0;-100;1,0;3,0;0,0;2,0;column;0,0;True;False;False;1,35100007057;False;0,827000141144
ABH1987w;experiment;2017-03-28-12-08-25;14,0;12,0;-100;2,0;1,0;0,0;3,0;row;0,0;True;True;False;0,848000049591;False;0,529000043869
ABH1987w;experiment;2017-03-28-12-08-25;14,0;13,0;-100;0,0;1,0;3,0;2,0;column;0,0;False;True;False;1,08299994469;True;0,927000045776
ABH1987w;experiment;2017-03-28-12-08-25;14,0;14,0;-100;2,0;0,0;3,0;1,0;column;0,0;True;True;True;0,982999801636;True;0,596999883652
ABH1987w;experiment;2017-03-28-12-08-25;14,0;15,0;-100;3,0;1,0;0,0;2,0;column;1,0;False;True;False;1,04999995232;True;1,42999982834
ABH1987w;experiment;2017-03-28-12-08-25;14,0;16,0;-100;2,0;1,0;3,0;0,0;column;0,0;False;False;False;1,11500000954;True;1,39499998093
ABH1987w;experiment;2017-03-28-12-08-25;14,0;17,0;-100;3,0;0,0;1,0;2,0;row;1,0;True;False;False;0,78400015831;False;1,46900010109
ABH1987w;experiment;2017-03-28-12-08-25;14,0;18,0;-100;1,0;0,0;3,0;2,0;column;0,0;False;False;False;0,750999927521;True;0,59500002861
ABH1987w;experiment;2017-03-28-12-08-25;14,0;19,0;-100;3,0;0,0;1,0;2,0;column;1,0;False;True;False;0,983999967575;True;0,565999984741
ABH1987w;experiment;2017-03-28-12-08-25;14,0;20,0;-100;3,0;1,0;0,0;2,0;column;0,0;True;False;True;0,950000047684;True;1,36400008202
ABH1987w;experiment;2017-03-28-12-08-25;14,0;21,0;-100;2,0;1,0;3,0;0,0;row;0,0;True;True;True;1,81599998474;True;1,47000002861
ABH1987w;experiment;2017-03-28-12-08-25;14,0;22,0;-100;3,0;0,0;2,0;1,0;column;0,0;True;False;True;0,981999874115;True;1,09200000763
ABH1987w;experiment;2017-03-28-12-08-25;14,0;23,0;-100;1,0;3,0;0,0;2,0;row;1,0;False;True;False;1,38399982452;True;0,869000196457
ABH1987w;experiment;2017-03-28-12-08-25;14,0;24,0;-100;1,0;3,0;2,0;0,0;column;0,0;True;True;True;1,21700000763;True;0,768000125885
ABH1987w;experiment;2017-03-28-12-08-25;14,0;25,0;-100;0,0;2,0;3,0;1,0;column;0,0;True;False;True;0,950999975204;True;1,47000002861
ABH1987w;experiment;2017-03-28-12-08-25;14,0;26,0;-100;2,0;3,0;0,0;1,0;column;0,0;False;True;False;0,757000207901;True;0,767999887466
ABH1987w;experiment;2017-03-28-12-08-25;14,0;27,0;-100;1,0;0,0;2,0;3,0;column;0,0;True;True;False;0,815999984741;False;0,860999822617
ABH1987w;experiment;2017-03-28-12-08-25;14,0;28,0;-100;1,0;2,0;3,0;0,0;row;1,0;False;True;False;1,64900016785;True;0,800999879837
ABH1987w;experiment;2017-03-28-12-08-25;14,0;29,0;-100;3,0;1,0;2,0;0,0;row;1,0;False;True;False;1,31799983978;True;0,536999940872
ABH1987w;experiment;2017-03-28-12-08-25;14,0;30,0;-100;0,0;3,0;1,0;2,0;row;0,0;False;True;False;1,28400015831;True;1,30500006676
ABH1987w;experiment;2017-03-28-12-08-25;14,0;31,0;-100;2,0;3,0;0,0;1,0;row;0,0;True;True;True;1,65000009537;True;1,26600003242
ABH1987w;experiment;2017-03-28-12-08-25;14,0;32,0;-100;3,0;1,0;2,0;0,0;column;0,0;True;True;True;0,848000049591;True;0,569000005722
ABH1987w;experiment;2017-03-28-12-08-25;14,0;33,0;-100;1,0;3,0;2,0;0,0;row;1,0;True;True;True;1,44999980927;True;0,521999835968
ABH1987w;experiment;2017-03-28-12-08-25;14,0;34,0;-100;1,0;2,0;0,0;3,0;row;0,0;False;False;False;1,15100002289;True;1,30399990082
ABH1987w;experiment;2017-03-28-12-08-25;14,0;35,0;-100;3,0;0,0;2,0;1,0;row;0,0;False;True;False;1,08200001717;True;1,40300011635
ABH1987w;experiment;2017-03-28-12-08-25;14,0;36,0;-100;1,0;0,0;2,0;3,0;column;1,0;True;False;False;1,21600008011;False;1,09400010109
ABH1987w;experiment;2017-03-28-12-08-25;14,0;37,0;-100;3,0;2,0;1,0;0,0;row;1,0;False;False;False;1,28299999237;True;1,16700005531
ABH1987w;experiment;2017-03-28-12-08-25;14,0;38,0;-100;0,0;2,0;3,0;1,0;row;1,0;False;True;False;1,08500003815;True;0,886999845505
ABH1987w;experiment;2017-03-28-12-08-25;14,0;39,0;-100;0,0;2,0;1,0;3,0;row;0,0;False;False;False;1,14999985695;True;0,961999893188
ABH1987w;experiment;2017-03-28-12-08-25;14,0;40,0;-100;1,0;3,0;0,0;2,0;column;0,0;False;False;False;1,08399987221;True;1,39600014687
ABH1987w;experiment;2017-03-28-12-08-25;14,0;41,0;-100;0,0;1,0;2,0;3,0;row;0,0;True;False;True;1,18299984932;True;1,36999988556
ABH1987w;experiment;2017-03-28-12-08-25;14,0;42,0;-100;0,0;1,0;2,0;3,0;column;1,0;True;True;False;1,01600003242;False;0,927999973297
ABH1987w;experiment;2017-03-28-12-08-25;14,0;43,0;-100;2,0;3,0;1,0;0,0;column;1,0;False;True;False;1,21499991417;True;0,661000013351
ABH1987w;experiment;2017-03-28-12-08-25;14,0;44,0;-100;0,0;1,0;3,0;2,0;row;1,0;False;True;False;1,0490000248;True;0,603000164032
ABH1987w;experiment;2017-03-28-12-08-25;14,0;45,0;-100;0,0;3,0;2,0;1,0;row;1,0;True;True;True;0,882999897003;True;0,960999965668
ABH1987w;experiment;2017-03-28-12-08-25;14,0;46,0;-100;2,0;3,0;0,0;1,0;row;1,0;True;True;True;1,18400001526;True;0,829999923706
ABH1987w;experiment;2017-03-28-12-08-25;14,0;47,0;-100;1,0;2,0;3,0;0,0;column;1,0;True;True;False;0,850999832153;False;0,636999845505
ABH1987w;experiment;2017-03-28-12-08-25;14,0;48,0;-100;3,0;2,0;0,0;1,0;column;0,0;False;False;False;1,51699995995;True;1,06999993324
