Observer;Condition;SessionID;Block;Trial;COA;Color0;Color1;Color2;Color3;Target;Which;Match;FlipComplimentary;Response;RT;Correct;OnsetDelay
ACR1994m;game;2017-04-24-16-17-37;1,0;1,0;-100;3,0;1,0;0,0;2,0;row;1,0;False;False;True;11,248000145;False;1,46899986267
ACR1994m;game;2017-04-24-16-17-37;1,0;2,0;-100;3,0;1,0;0,0;2,0;row;0,0;False;False;False;2,05000019073;True;1,47000002861
ACR1994m;game;2017-04-24-16-17-37;1,0;3,0;-100;0,0;3,0;2,0;1,0;column;1,0;False;False;False;1,91700005531;True;1,4359998703
ACR1994m;game;2017-04-24-16-17-37;1,0;4,0;-100;1,0;3,0;0,0;2,0;column;1,0;False;False;False;1,18299984932;True;0,797999858856
ACR1994m;game;2017-04-24-16-17-37;1,0;5,0;-100;3,0;2,0;0,0;1,0;row;1,0;True;True;True;1,0150001049;True;1,02999997139
ACR1994m;game;2017-04-24-16-17-37;1,0;6,0;-100;1,0;2,0;3,0;0,0;column;0,0;True;True;True;1,04899978638;True;0,970999956131
ACR1994m;game;2017-04-24-16-17-37;1,0;7,0;-100;1,0;3,0;2,0;0,0;column;0,0;True;False;True;1,08399987221;True;0,599999904633
ACR1994m;game;2017-04-24-16-17-37;1,0;8,0;-100;1,0;0,0;2,0;3,0;row;0,0;True;True;False;1,48200011253;False;1,02600002289
ACR1994m;game;2017-04-24-16-17-37;1,0;9,0;-100;3,0;0,0;1,0;2,0;column;1,0;True;True;True;0,713999986649;True;1,02900004387
ACR1994m;game;2017-04-24-16-17-37;1,0;10,0;-100;2,0;3,0;1,0;0,0;column;1,0;True;True;True;0,947000026703;True;1,43200016022
ACR1994m;game;2017-04-24-16-17-37;1,0;11,0;-100;3,0;0,0;1,0;2,0;column;1,0;False;False;False;1,04999995232;True;0,701999902725
ACR1994m;game;2017-04-24-16-17-37;1,0;12,0;-100;2,0;0,0;1,0;3,0;column;1,0;False;False;False;1,617000103;True;1,03799986839
ACR1994m;game;2017-04-24-16-17-37;1,0;13,0;-100;0,0;2,0;1,0;3,0;column;0,0;True;False;False;1,25;False;0,748000144958
ACR1994m;game;2017-04-24-16-17-37;1,0;14,0;-100;3,0;0,0;2,0;1,0;column;0,0;True;False;True;0,848999977112;True;0,838000059128
ACR1994m;game;2017-04-24-16-17-37;1,0;15,0;-100;1,0;2,0;3,0;0,0;row;0,0;False;False;False;1,16499996185;True;1,03299999237
ACR1994m;game;2017-04-24-16-17-37;1,0;16,0;-100;0,0;1,0;2,0;3,0;row;0,0;True;False;False;1,58400011063;False;1,16699981689
ACR1994m;game;2017-04-24-16-17-37;1,0;17,0;-100;1,0;0,0;3,0;2,0;row;0,0;True;False;True;0,549000024796;True;0,52999997139
ACR1994m;game;2017-04-24-16-17-37;1,0;18,0;-100;0,0;1,0;2,0;3,0;column;0,0;True;True;True;0,883000135422;True;1,49900007248
ACR1994m;game;2017-04-24-16-17-37;1,0;19,0;-100;1,0;3,0;0,0;2,0;row;1,0;True;False;False;0,947000026703;False;1,2009999752
ACR1994m;game;2017-04-24-16-17-37;1,0;20,0;-100;0,0;3,0;1,0;2,0;column;1,0;True;False;True;1,51699995995;True;0,761999845505
ACR1994m;game;2017-04-24-16-17-37;1,0;21,0;-100;0,0;3,0;2,0;1,0;column;1,0;True;True;True;0,582000017166;True;0,930999994278
ACR1994m;game;2017-04-24-16-17-37;1,0;22,0;-100;2,0;0,0;3,0;1,0;row;0,0;False;True;False;2,05100011826;True;0,637000083923
ACR1994m;game;2017-04-24-16-17-37;1,0;23,0;-100;1,0;2,0;0,0;3,0;row;1,0;False;False;False;1,61500000954;True;1,4359998703
ACR1994m;game;2017-04-24-16-17-37;1,0;24,0;-100;3,0;2,0;0,0;1,0;column;1,0;True;True;True;1,15000009537;True;1,36899995804
ACR1994m;game;2017-04-24-16-17-37;1,0;25,0;-100;2,0;3,0;0,0;1,0;column;0,0;True;True;True;0,817999839783;True;1,15699982643
ACR1994m;game;2017-04-24-16-17-37;1,0;26,0;-100;0,0;1,0;2,0;3,0;column;1,0;True;False;False;0,815999984741;False;0,788000106812
ACR1994m;game;2017-04-24-16-17-37;1,0;27,0;-100;0,0;3,0;1,0;2,0;row;1,0;True;False;True;0,817000150681;True;0,631999969482
ACR1994m;game;2017-04-24-16-17-37;1,0;28,0;-100;0,0;1,0;2,0;3,0;row;1,0;False;False;False;1,57999992371;True;1,50500011444
ACR1994m;game;2017-04-24-16-17-37;1,0;29,0;-100;0,0;3,0;1,0;2,0;column;0,0;True;False;True;1,21700000763;True;0,727999925613
ACR1994m;game;2017-04-24-16-17-37;1,0;30,0;-100;3,0;1,0;0,0;2,0;row;1,0;True;False;False;1,25;False;1,47100019455
ACR1994m;game;2017-04-24-16-17-37;1,0;31,0;-100;2,0;0,0;3,0;1,0;column;1,0;True;True;True;0,914999961853;True;1,12700009346
ACR1994m;game;2017-04-24-16-17-37;1,0;32,0;-100;0,0;2,0;3,0;1,0;row;1,0;False;True;False;1,18400001526;True;0,726999998093
ACR1994m;game;2017-04-24-16-17-37;1,0;33,0;-100;0,0;3,0;2,0;1,0;column;0,0;False;True;True;1,75099992752;False;0,800999879837
ACR1994m;game;2017-04-24-16-17-37;1,0;34,0;-100;0,0;1,0;2,0;3,0;column;0,0;False;True;False;1,16599988937;True;1,03199982643
ACR1994m;game;2017-04-24-16-17-37;1,0;35,0;-100;0,0;1,0;3,0;2,0;column;1,0;False;True;False;2,88100004196;True;0,769999980927
ACR1994m;game;2017-04-24-16-17-37;1,0;36,0;-100;0,0;2,0;1,0;3,0;column;0,0;False;False;True;1,24800014496;False;0,598000049591
ACR1994m;game;2017-04-24-16-17-37;1,0;37,0;-100;3,0;0,0;1,0;2,0;row;0,0;True;True;False;1,68300008774;False;0,669999837875
ACR1994m;game;2017-04-24-16-17-37;1,0;38,0;-100;3,0;2,0;1,0;0,0;column;0,0;False;True;False;0,949999809265;True;1,26300001144
ACR1994m;game;2017-04-24-16-17-37;1,0;39,0;-100;1,0;0,0;2,0;3,0;row;1,0;False;True;False;0,783999919891;True;1,16799998283
ACR1994m;game;2017-04-24-16-17-37;1,0;40,0;-100;1,0;2,0;0,0;3,0;row;0,0;True;True;True;0,916000127792;True;0,9359998703
ACR1994m;game;2017-04-24-16-17-37;1,0;41,0;-100;2,0;0,0;3,0;1,0;row;1,0;True;False;False;1,4319999218;False;1,26200008392
ACR1994m;game;2017-04-24-16-17-37;1,0;42,0;-100;3,0;0,0;2,0;1,0;row;0,0;True;True;True;0,715000152588;True;0,635999917984
ACR1994m;game;2017-04-24-16-17-37;1,0;43,0;-100;2,0;0,0;1,0;3,0;row;0,0;False;False;False;1,05000019073;True;1,36000013351
ACR1994m;game;2017-04-24-16-17-37;1,0;44,0;-100;1,0;3,0;2,0;0,0;row;0,0;True;False;True;0,482999801636;True;1,03799986839
ACR1994m;game;2017-04-24-16-17-37;1,0;45,0;-100;0,0;3,0;2,0;1,0;row;1,0;True;False;True;1,21599984169;True;0,733999967575
ACR1994m;game;2017-04-24-16-17-37;1,0;46,0;-100;1,0;0,0;3,0;2,0;row;1,0;False;False;False;1,45000004768;True;1,37299990654
ACR1994m;game;2017-04-24-16-17-37;1,0;47,0;-100;3,0;1,0;2,0;0,0;column;0,0;False;False;True;0,982000112534;False;1,13000011444
ACR1994m;game;2017-04-24-16-17-37;1,0;48,0;-100;2,0;1,0;3,0;0,0;row;1,0;True;False;True;0,684000015259;True;1,14200019836
ACR1994m;game;2017-04-24-16-17-37;2,0;1,0;100;0,0;1,0;2,0;3,0;column;0,0;False;False;True;0,801000118256;False;1,34500002861
ACR1994m;game;2017-04-24-16-17-37;2,0;2,0;100;3,0;1,0;2,0;0,0;row;0,0;True;False;True;0,601000070572;True;1,13100004196
ACR1994m;game;2017-04-24-16-17-37;2,0;3,0;100;2,0;3,0;0,0;1,0;column;0,0;True;False;True;1,40000009537;True;1,33600020409
ACR1994m;game;2017-04-24-16-17-37;2,0;4,0;100;1,0;2,0;3,0;0,0;row;1,0;True;True;True;0,599999904633;True;1,18799996376
ACR1994m;game;2017-04-24-16-17-37;2,0;5,0;100;3,0;2,0;1,0;0,0;row;1,0;False;True;False;0,699999809265;True;1,39299988747
ACR1994m;game;2017-04-24-16-17-37;2,0;6,0;100;2,0;1,0;3,0;0,0;column;0,0;True;True;True;0,900000095367;True;1,22699999809
ACR1994m;game;2017-04-24-16-17-37;2,0;7,0;100;2,0;3,0;1,0;0,0;column;0,0;True;True;True;0,566999912262;True;1,36599993706
ACR1994m;game;2017-04-24-16-17-37;2,0;8,0;100;2,0;1,0;0,0;3,0;column;1,0;True;True;False;0,867000102997;False;0,564999818802
ACR1994m;game;2017-04-24-16-17-37;2,0;9,0;100;3,0;1,0;2,0;0,0;column;0,0;True;True;True;1,06500005722;True;0,898000001907
ACR1994m;game;2017-04-24-16-17-37;2,0;10,0;100;0,0;3,0;2,0;1,0;row;0,0;False;False;True;0,967000007629;False;1,42600011826
ACR1994m;game;2017-04-24-16-17-37;2,0;11,0;100;3,0;2,0;1,0;0,0;row;0,0;False;False;False;0,565999984741;True;0,901999950409
ACR1994m;game;2017-04-24-16-17-37;2,0;12,0;100;3,0;1,0;0,0;2,0;column;1,0;True;True;True;0,634000062943;True;0,726000070572
ACR1994m;game;2017-04-24-16-17-37;2,0;13,0;100;1,0;0,0;2,0;3,0;column;0,0;True;True;True;0,967000007629;True;1,50099992752
ACR1994m;game;2017-04-24-16-17-37;2,0;14,0;100;3,0;1,0;2,0;0,0;column;1,0;False;False;False;1,40100002289;True;0,636000156403
ACR1994m;game;2017-04-24-16-17-37;2,0;15,0;100;1,0;3,0;0,0;2,0;row;1,0;False;False;True;2,09899997711;False;0,601000070572
ACR1994m;game;2017-04-24-16-17-37;2,0;16,0;100;0,0;3,0;2,0;1,0;column;1,0;True;True;True;0,766999959946;True;0,796999931335
ACR1994m;game;2017-04-24-16-17-37;2,0;17,0;100;2,0;1,0;3,0;0,0;row;1,0;True;False;True;1,03299999237;True;0,635999917984
ACR1994m;game;2017-04-24-16-17-37;2,0;18,0;100;3,0;2,0;1,0;0,0;row;1,0;True;True;True;0,665999889374;True;1,29799985886
ACR1994m;game;2017-04-24-16-17-37;2,0;19,0;100;3,0;1,0;0,0;2,0;column;0,0;False;False;False;0,799000024796;True;0,697999954224
ACR1994m;game;2017-04-24-16-17-37;2,0;20,0;100;0,0;2,0;1,0;3,0;column;0,0;True;False;False;1,46700000763;False;0,827999830246
ACR1994m;game;2017-04-24-16-17-37;2,0;21,0;100;1,0;3,0;2,0;0,0;column;0,0;True;False;True;0,633000135422;True;0,636999845505
ACR1994m;game;2017-04-24-16-17-37;2,0;22,0;100;1,0;2,0;3,0;0,0;column;1,0;False;False;True;0,900000095367;False;1,132999897
ACR1994m;game;2017-04-24-16-17-37;2,0;23,0;100;1,0;2,0;3,0;0,0;column;1,0;True;False;True;1,29999995232;True;0,666000127792
ACR1994m;game;2017-04-24-16-17-37;2,0;24,0;100;1,0;3,0;0,0;2,0;column;1,0;False;False;False;1,03199982643;True;0,667999982834
ACR1994m;game;2017-04-24-16-17-37;2,0;25,0;100;0,0;3,0;1,0;2,0;row;1,0;True;False;True;0,566999912262;True;1,5
ACR1994m;game;2017-04-24-16-17-37;2,0;26,0;100;0,0;3,0;2,0;1,0;row;0,0;True;True;True;0,832999944687;True;0,69000005722
ACR1994m;game;2017-04-24-16-17-37;2,0;27,0;100;2,0;3,0;1,0;0,0;row;1,0;True;False;True;0,966000080109;True;1,43700003624
ACR1994m;game;2017-04-24-16-17-37;2,0;28,0;100;1,0;3,0;0,0;2,0;column;0,0;False;True;False;1,33299994469;True;1,09599995613
ACR1994m;game;2017-04-24-16-17-37;2,0;29,0;100;1,0;0,0;2,0;3,0;row;1,0;True;True;False;1,36699986458;False;1,40100002289
ACR1994m;game;2017-04-24-16-17-37;2,0;30,0;100;3,0;0,0;1,0;2,0;row;0,0;True;True;False;1,19799995422;False;1,4319999218
ACR1994m;game;2017-04-24-16-17-37;2,0;31,0;100;0,0;2,0;3,0;1,0;column;1,0;False;True;False;1,132999897;True;1,2380001545
ACR1994m;game;2017-04-24-16-17-37;2,0;32,0;100;1,0;0,0;3,0;2,0;row;0,0;False;True;True;0,934000015259;False;0,998999834061
ACR1994m;game;2017-04-24-16-17-37;2,0;33,0;100;2,0;1,0;0,0;3,0;row;1,0;False;True;False;1,10000014305;True;1,03900003433
ACR1994m;game;2017-04-24-16-17-37;2,0;34,0;100;0,0;1,0;2,0;3,0;row;1,0;True;False;False;1,73300004005;False;0,858000040054
ACR1994m;game;2017-04-24-16-17-37;2,0;35,0;100;0,0;3,0;1,0;2,0;column;0,0;True;False;True;0,700000047684;True;1,20399999619
ACR1994m;game;2017-04-24-16-17-37;2,0;36,0;100;3,0;0,0;1,0;2,0;row;0,0;False;True;False;1,40000009537;True;0,631000041962
ACR1994m;game;2017-04-24-16-17-37;2,0;37,0;100;1,0;0,0;2,0;3,0;column;1,0;False;False;False;0,866999864578;True;1,45899987221
ACR1994m;game;2017-04-24-16-17-37;2,0;38,0;100;2,0;1,0;3,0;0,0;column;0,0;False;True;False;1,43299984932;True;0,834999799728
ACR1994m;game;2017-04-24-16-17-37;2,0;39,0;100;0,0;3,0;1,0;2,0;row;0,0;True;False;False;0,766000032425;False;1,47099995613
ACR1994m;game;2017-04-24-16-17-37;2,0;40,0;100;2,0;1,0;0,0;3,0;row;0,0;False;False;True;1,03399991989;False;0,531000137329
ACR1994m;game;2017-04-24-16-17-37;2,0;41,0;100;2,0;1,0;0,0;3,0;column;1,0;False;True;False;0,766999959946;True;1,05999994278
ACR1994m;game;2017-04-24-16-17-37;2,0;42,0;100;0,0;1,0;3,0;2,0;row;1,0;True;True;False;1,20000004768;False;1,367000103
ACR1994m;game;2017-04-24-16-17-37;2,0;43,0;100;0,0;3,0;1,0;2,0;column;0,0;False;True;False;1,19799995422;True;0,897000074387
ACR1994m;game;2017-04-24-16-17-37;2,0;44,0;100;1,0;3,0;2,0;0,0;column;0,0;False;True;False;1,20000004768;True;1,0600001812
ACR1994m;game;2017-04-24-16-17-37;2,0;45,0;100;0,0;1,0;2,0;3,0;column;1,0;True;True;False;1,26699995995;False;0,769999980927
ACR1994m;game;2017-04-24-16-17-37;2,0;46,0;100;1,0;3,0;2,0;0,0;row;0,0;False;False;False;1,03400015831;True;1,28800010681
ACR1994m;game;2017-04-24-16-17-37;2,0;47,0;100;2,0;3,0;0,0;1,0;column;0,0;False;False;False;1,36699986458;True;1,39800000191
ACR1994m;game;2017-04-24-16-17-37;2,0;48,0;100;2,0;0,0;3,0;1,0;row;0,0;False;True;True;1,80000019073;False;0,832000017166
ACR1994m;game;2017-04-24-16-17-37;3,0;1,0;1000;1,0;3,0;2,0;0,0;row;1,0;True;False;False;0,767000198364;False;0,960000038147
ACR1994m;game;2017-04-24-16-17-37;3,0;2,0;1000;3,0;2,0;0,0;1,0;row;0,0;False;False;True;1,0;False;1,22900009155
ACR1994m;game;2017-04-24-16-17-37;3,0;3,0;1000;1,0;2,0;0,0;3,0;column;1,0;True;True;False;0,700000047684;False;0,705000162125
ACR1994m;game;2017-04-24-16-17-37;3,0;4,0;1000;0,0;1,0;2,0;3,0;column;0,0;True;False;True;1,03299999237;True;1,19799995422
ACR1994m;game;2017-04-24-16-17-37;3,0;5,0;1000;2,0;3,0;1,0;0,0;column;0,0;False;True;False;1,46599984169;True;1,15699982643
ACR1994m;game;2017-04-24-16-17-37;3,0;6,0;1000;0,0;2,0;1,0;3,0;column;1,0;False;True;False;1,29999995232;True;0,525000095367
ACR1994m;game;2017-04-24-16-17-37;3,0;7,0;1000;0,0;2,0;3,0;1,0;row;0,0;True;True;True;0,665999889374;True;1,29200005531
ACR1994m;game;2017-04-24-16-17-37;3,0;8,0;1000;3,0;1,0;2,0;0,0;column;0,0;False;True;False;1,79999995232;True;1,43299984932
ACR1994m;game;2017-04-24-16-17-37;3,0;9,0;1000;0,0;2,0;1,0;3,0;row;1,0;False;True;True;0,866000175476;False;1,27300000191
ACR1994m;game;2017-04-24-16-17-37;3,0;10,0;1000;0,0;1,0;2,0;3,0;column;1,0;True;True;True;0,599999904633;True;1,1930000782
ACR1994m;game;2017-04-24-16-17-37;3,0;11,0;1000;2,0;1,0;3,0;0,0;column;0,0;False;True;False;0,700000047684;True;0,698999881744
ACR1994m;game;2017-04-24-16-17-37;3,0;12,0;1000;0,0;3,0;2,0;1,0;column;1,0;True;True;False;1,26600003242;False;0,758000135422
ACR1994m;game;2017-04-24-16-17-37;3,0;13,0;1000;3,0;1,0;2,0;0,0;column;1,0;True;True;True;0,865999937057;True;1,23100018501
ACR1994m;game;2017-04-24-16-17-37;3,0;14,0;1000;2,0;3,0;1,0;0,0;row;1,0;False;True;False;1,10000014305;True;0,900000095367
ACR1994m;game;2017-04-24-16-17-37;3,0;15,0;1000;0,0;1,0;3,0;2,0;row;1,0;False;True;False;0,766999959946;True;1,5039999485
ACR1994m;game;2017-04-24-16-17-37;3,0;16,0;1000;0,0;1,0;2,0;3,0;row;1,0;False;False;False;2,09800004959;True;1,22899985313
ACR1994m;game;2017-04-24-16-17-37;3,0;17,0;1000;0,0;1,0;3,0;2,0;column;0,0;False;False;False;1,86699986458;True;1,10199999809
ACR1994m;game;2017-04-24-16-17-37;3,0;18,0;1000;0,0;2,0;1,0;3,0;row;0,0;False;False;True;1,5;False;1,46700000763
ACR1994m;game;2017-04-24-16-17-37;3,0;19,0;1000;0,0;1,0;3,0;2,0;row;0,0;True;True;False;1,36600017548;False;0,93499994278
ACR1994m;game;2017-04-24-16-17-37;3,0;20,0;1000;3,0;0,0;2,0;1,0;row;1,0;True;False;True;0,5;True;1,47099995613
ACR1994m;game;2017-04-24-16-17-37;3,0;21,0;1000;3,0;1,0;2,0;0,0;row;0,0;False;True;False;0,796999931335;True;0,592000007629
ACR1994m;game;2017-04-24-16-17-37;3,0;22,0;1000;2,0;1,0;0,0;3,0;column;0,0;True;False;False;1,53299999237;False;1,23099994659
ACR1994m;game;2017-04-24-16-17-37;3,0;23,0;1000;0,0;1,0;2,0;3,0;column;0,0;False;True;False;0,565999984741;True;0,537999868393
ACR1994m;game;2017-04-24-16-17-37;3,0;24,0;1000;0,0;2,0;3,0;1,0;row;1,0;False;True;False;0,866999864578;True;0,669000148773
ACR1994m;game;2017-04-24-16-17-37;3,0;25,0;1000;2,0;3,0;1,0;0,0;column;1,0;False;False;True;0,866999864578;False;1,12400007248
ACR1994m;game;2017-04-24-16-17-37;3,0;26,0;1000;1,0;0,0;3,0;2,0;row;1,0;True;False;False;0,799000024796;False;1,00200009346
ACR1994m;game;2017-04-24-16-17-37;3,0;27,0;1000;0,0;3,0;2,0;1,0;column;0,0;False;False;False;0,766999959946;True;1,13000011444
ACR1994m;game;2017-04-24-16-17-37;3,0;28,0;1000;1,0;2,0;3,0;0,0;row;0,0;True;True;True;0,932000160217;True;1,19000005722
ACR1994m;game;2017-04-24-16-17-37;3,0;29,0;1000;1,0;0,0;2,0;3,0;row;1,0;False;False;True;1,06599998474;False;1,125
ACR1994m;game;2017-04-24-16-17-37;3,0;30,0;1000;0,0;3,0;2,0;1,0;row;0,0;True;True;True;0,833000183105;True;0,574000120163
ACR1994m;game;2017-04-24-16-17-37;3,0;31,0;1000;2,0;0,0;1,0;3,0;row;0,0;False;False;False;1,16700005531;True;0,531000137329
ACR1994m;game;2017-04-24-16-17-37;3,0;32,0;1000;1,0;0,0;3,0;2,0;row;0,0;False;False;True;1,03299999237;False;0,964000225067
ACR1994m;game;2017-04-24-16-17-37;3,0;33,0;1000;0,0;3,0;1,0;2,0;row;1,0;False;True;True;0,566999912262;False;1,0720000267
ACR1994m;game;2017-04-24-16-17-37;3,0;34,0;1000;2,0;3,0;1,0;0,0;column;0,0;True;False;False;0,632999897003;False;0,922999858856
ACR1994m;game;2017-04-24-16-17-37;3,0;35,0;1000;1,0;3,0;2,0;0,0;row;0,0;False;True;True;1,23399996758;False;1,47199988365
ACR1994m;game;2017-04-24-16-17-37;3,0;36,0;1000;3,0;0,0;2,0;1,0;column;1,0;False;False;False;0,532999992371;True;1,46500015259
ACR1994m;game;2017-04-24-16-17-37;3,0;37,0;1000;3,0;2,0;0,0;1,0;column;0,0;False;False;True;0,598000049591;False;1,16600012779
ACR1994m;game;2017-04-24-16-17-37;3,0;38,0;1000;1,0;2,0;3,0;0,0;column;0,0;False;False;False;0,5;True;0,730999946594
ACR1994m;game;2017-04-24-16-17-37;3,0;39,0;1000;1,0;2,0;3,0;0,0;row;1,0;False;False;True;0,699000120163;False;0,871999979019
ACR1994m;game;2017-04-24-16-17-37;3,0;40,0;1000;3,0;0,0;1,0;2,0;column;1,0;True;False;True;0,367000102997;True;1,50099992752
ACR1994m;game;2017-04-24-16-17-37;3,0;41,0;1000;1,0;2,0;0,0;3,0;column;0,0;True;False;True;0,800000190735;True;0,632000207901
ACR1994m;game;2017-04-24-16-17-37;3,0;42,0;1000;2,0;1,0;0,0;3,0;row;0,0;True;False;False;1,367000103;False;1,36299991608
ACR1994m;game;2017-04-24-16-17-37;3,0;43,0;1000;2,0;0,0;1,0;3,0;column;1,0;True;False;True;0,600000143051;True;1,4390001297
ACR1994m;game;2017-04-24-16-17-37;3,0;44,0;1000;0,0;1,0;2,0;3,0;row;1,0;True;True;False;1,0;False;0,625
ACR1994m;game;2017-04-24-16-17-37;3,0;45,0;1000;3,0;1,0;0,0;2,0;column;0,0;True;True;True;0,532999992371;True;1,08700013161
ACR1994m;game;2017-04-24-16-17-37;3,0;46,0;1000;1,0;0,0;2,0;3,0;row;0,0;True;False;False;0,800000190735;False;1,42000007629
ACR1994m;game;2017-04-24-16-17-37;3,0;47,0;1000;2,0;0,0;3,0;1,0;row;1,0;True;True;True;0,799999952316;True;0,929000139236
ACR1994m;game;2017-04-24-16-17-37;3,0;48,0;1000;2,0;0,0;1,0;3,0;row;1,0;True;True;False;0,700999975204;False;1,40000009537
ACR1994m;game;2017-04-24-16-17-37;4,0;1,0;100;2,0;0,0;1,0;3,0;row;1,0;True;False;False;0,599999904633;False;1,10100007057
ACR1994m;game;2017-04-24-16-17-37;4,0;2,0;100;0,0;2,0;1,0;3,0;row;1,0;True;False;True;0,700000047684;True;0,628000020981
ACR1994m;game;2017-04-24-16-17-37;4,0;3,0;100;3,0;0,0;2,0;1,0;row;1,0;False;True;False;0,798000097275;True;1,36400008202
ACR1994m;game;2017-04-24-16-17-37;4,0;4,0;100;0,0;2,0;3,0;1,0;row;0,0;True;False;True;1,00099992752;True;0,567999839783
ACR1994m;game;2017-04-24-16-17-37;4,0;5,0;100;1,0;0,0;2,0;3,0;column;1,0;True;True;False;0,900000095367;False;0,929000139236
ACR1994m;game;2017-04-24-16-17-37;4,0;6,0;100;3,0;0,0;1,0;2,0;column;0,0;False;True;True;0,733999967575;False;0,598000049591
ACR1994m;game;2017-04-24-16-17-37;4,0;7,0;100;2,0;3,0;0,0;1,0;row;1,0;True;True;True;0,498999834061;True;0,832000017166
ACR1994m;game;2017-04-24-16-17-37;4,0;8,0;100;0,0;2,0;3,0;1,0;column;0,0;True;False;False;1,06699991226;False;1,29800009727
ACR1994m;game;2017-04-24-16-17-37;4,0;9,0;100;1,0;3,0;0,0;2,0;row;0,0;True;True;False;0,934000015259;False;0,596999883652
ACR1994m;game;2017-04-24-16-17-37;4,0;10,0;100;2,0;0,0;1,0;3,0;row;0,0;False;True;True;0,665999889374;False;1,02099990845
ACR1994m;game;2017-04-24-16-17-37;4,0;11,0;100;3,0;0,0;1,0;2,0;row;1,0;True;False;False;0,600000143051;False;0,703999996185
ACR1994m;game;2017-04-24-16-17-37;4,0;12,0;100;0,0;1,0;3,0;2,0;column;1,0;False;False;True;0,866999864578;False;1,36199998856
ACR1994m;game;2017-04-24-16-17-37;4,0;13,0;100;0,0;1,0;3,0;2,0;column;0,0;True;False;True;0,667000055313;True;1,50099992752
ACR1994m;game;2017-04-24-16-17-37;4,0;14,0;100;0,0;2,0;3,0;1,0;row;1,0;False;True;False;0,666999816895;True;1,23399996758
ACR1994m;game;2017-04-24-16-17-37;4,0;15,0;100;3,0;2,0;0,0;1,0;row;0,0;False;False;True;0,766000032425;False;0,668999910355
ACR1994m;game;2017-04-24-16-17-37;4,0;16,0;100;2,0;0,0;3,0;1,0;row;1,0;True;True;True;0,533999919891;True;1,42899990082
ACR1994m;game;2017-04-24-16-17-37;4,0;17,0;100;1,0;2,0;0,0;3,0;row;0,0;True;True;False;0,866000175476;False;0,626999855042
ACR1994m;game;2017-04-24-16-17-37;4,0;18,0;100;3,0;2,0;1,0;0,0;column;0,0;True;False;True;0,400000095367;True;1,49799990654
ACR1994m;game;2017-04-24-16-17-37;4,0;19,0;100;1,0;2,0;3,0;0,0;row;0,0;True;True;True;1,0;True;0,868999958038
ACR1994m;game;2017-04-24-16-17-37;4,0;20,0;100;2,0;0,0;1,0;3,0;row;0,0;True;True;False;1,0;False;0,634000062943
ACR1994m;game;2017-04-24-16-17-37;4,0;21,0;100;1,0;3,0;2,0;0,0;row;1,0;False;True;True;0,733000040054;False;1,09500002861
ACR1994m;game;2017-04-24-16-17-37;4,0;22,0;100;1,0;2,0;0,0;3,0;column;1,0;False;False;False;0,667000055313;True;0,589999914169
ACR1994m;game;2017-04-24-16-17-37;4,0;23,0;100;1,0;0,0;3,0;2,0;column;0,0;True;False;True;0,700999975204;True;0,825000047684
ACR1994m;game;2017-04-24-16-17-37;4,0;24,0;100;1,0;2,0;0,0;3,0;column;0,0;True;True;False;1,03299999237;False;1,09800004959
ACR1994m;game;2017-04-24-16-17-37;4,0;25,0;100;3,0;0,0;1,0;2,0;row;1,0;False;False;True;1,53299999237;False;1,29600000381
ACR1994m;game;2017-04-24-16-17-37;4,0;26,0;100;0,0;3,0;2,0;1,0;column;0,0;True;True;True;0,933000087738;True;1,39900016785
ACR1994m;game;2017-04-24-16-17-37;4,0;27,0;100;3,0;0,0;2,0;1,0;column;1,0;False;True;False;0,96799993515;True;1,22300004959
ACR1994m;game;2017-04-24-16-17-37;4,0;28,0;100;2,0;0,0;3,0;1,0;row;1,0;False;True;False;1,23299980164;True;1,36100006104
ACR1994m;game;2017-04-24-16-17-37;4,0;29,0;100;2,0;3,0;1,0;0,0;column;1,0;True;True;True;1,16599988937;True;0,559000015259
ACR1994m;game;2017-04-24-16-17-37;4,0;30,0;100;1,0;2,0;0,0;3,0;row;1,0;False;True;True;0,933000087738;False;1,33499979973
ACR1994m;game;2017-04-24-16-17-37;4,0;31,0;100;1,0;3,0;0,0;2,0;column;1,0;True;True;False;0,866000175476;False;1,23099994659
ACR1994m;game;2017-04-24-16-17-37;4,0;32,0;100;1,0;3,0;2,0;0,0;column;1,0;False;False;True;0,932999849319;False;0,929999828339
ACR1994m;game;2017-04-24-16-17-37;4,0;33,0;100;0,0;3,0;2,0;1,0;row;1,0;False;False;False;0,632999897003;True;0,664999961853
ACR1994m;game;2017-04-24-16-17-37;4,0;34,0;100;1,0;2,0;3,0;0,0;column;0,0;False;False;True;1,0;False;1,3599998951
ACR1994m;game;2017-04-24-16-17-37;4,0;35,0;100;1,0;3,0;2,0;0,0;column;1,0;True;True;False;0,766999959946;False;1,39599990845
ACR1994m;game;2017-04-24-16-17-37;4,0;36,0;100;3,0;0,0;2,0;1,0;row;0,0;True;True;True;0,566999912262;True;0,90900015831
ACR1994m;game;2017-04-24-16-17-37;4,0;37,0;100;0,0;2,0;1,0;3,0;column;1,0;True;True;False;0,899999856949;False;1,42899990082
ACR1994m;game;2017-04-24-16-17-37;4,0;38,0;100;3,0;0,0;1,0;2,0;column;0,0;True;False;True;0,532999992371;True;1,08900022507
ACR1994m;game;2017-04-24-16-17-37;4,0;39,0;100;2,0;1,0;0,0;3,0;column;0,0;False;True;True;0,732999801636;False;0,69000005722
ACR1994m;game;2017-04-24-16-17-37;4,0;40,0;100;2,0;3,0;1,0;0,0;row;1,0;False;True;False;0,600000143051;True;1,33200001717
ACR1994m;game;2017-04-24-16-17-37;4,0;41,0;100;3,0;1,0;2,0;0,0;column;0,0;False;True;True;0,599999904633;False;1,49900007248
ACR1994m;game;2017-04-24-16-17-37;4,0;42,0;100;0,0;1,0;3,0;2,0;column;0,0;False;False;False;0,56600022316;True;1,4279999733
ACR1994m;game;2017-04-24-16-17-37;4,0;43,0;100;3,0;0,0;2,0;1,0;row;0,0;False;True;True;0,567000150681;False;0,534999847412
ACR1994m;game;2017-04-24-16-17-37;4,0;44,0;100;1,0;2,0;0,0;3,0;row;1,0;True;True;True;0,466000080109;True;1,03299999237
ACR1994m;game;2017-04-24-16-17-37;4,0;45,0;100;1,0;0,0;3,0;2,0;column;1,0;True;True;False;0,565999984741;False;1,03200006485
ACR1994m;game;2017-04-24-16-17-37;4,0;46,0;100;1,0;2,0;0,0;3,0;column;0,0;False;True;True;0,433000087738;False;0,895999908447
ACR1994m;game;2017-04-24-16-17-37;4,0;47,0;100;3,0;1,0;2,0;0,0;row;1,0;True;True;False;0,600000143051;False;1,0649998188
ACR1994m;game;2017-04-24-16-17-37;4,0;48,0;100;3,0;2,0;0,0;1,0;row;1,0;True;True;True;0,367000102997;True;0,632000207901
ACR1994m;game;2017-04-24-16-17-37;5,0;1,0;1000;1,0;3,0;2,0;0,0;column;1,0;False;False;True;0,633000135422;False;0,762000083923
ACR1994m;game;2017-04-24-16-17-37;5,0;2,0;1000;3,0;1,0;0,0;2,0;column;0,0;False;False;False;0,565999984741;True;0,795000076294
ACR1994m;game;2017-04-24-16-17-37;5,0;3,0;1000;3,0;2,0;1,0;0,0;row;0,0;True;True;True;1,03299999237;True;1,26600003242
ACR1994m;game;2017-04-24-16-17-37;5,0;4,0;1000;3,0;0,0;1,0;2,0;row;0,0;False;True;False;1,06599998474;True;1,23400020599
ACR1994m;game;2017-04-24-16-17-37;5,0;5,0;1000;1,0;0,0;3,0;2,0;row;1,0;False;False;True;0,966000080109;False;1,46499991417
ACR1994m;game;2017-04-24-16-17-37;5,0;6,0;1000;1,0;2,0;3,0;0,0;column;0,0;True;False;True;0,900000095367;True;0,798000097275
ACR1994m;game;2017-04-24-16-17-37;5,0;7,0;1000;3,0;0,0;2,0;1,0;row;1,0;False;True;False;1,0;True;0,826999902725
ACR1994m;game;2017-04-24-16-17-37;5,0;8,0;1000;1,0;2,0;0,0;3,0;row;1,0;False;False;False;1,09999990463;True;1,15499997139
ACR1994m;game;2017-04-24-16-17-37;5,0;9,0;1000;0,0;3,0;2,0;1,0;row;1,0;True;False;False;1,03200006485;False;1,23399996758
ACR1994m;game;2017-04-24-16-17-37;5,0;10,0;1000;2,0;3,0;0,0;1,0;row;1,0;True;False;True;0,5;True;1,09299993515
ACR1994m;game;2017-04-24-16-17-37;5,0;11,0;1000;2,0;3,0;1,0;0,0;column;1,0;True;True;True;0,667000055313;True;0,798000097275
ACR1994m;game;2017-04-24-16-17-37;5,0;12,0;1000;2,0;1,0;3,0;0,0;row;0,0;True;True;False;1,0;False;0,634999990463
ACR1994m;game;2017-04-24-16-17-37;5,0;13,0;1000;3,0;0,0;2,0;1,0;row;0,0;False;True;False;0,599999904633;True;1,4319999218
ACR1994m;game;2017-04-24-16-17-37;5,0;14,0;1000;2,0;1,0;3,0;0,0;column;1,0;False;False;True;0,566999912262;False;0,639000177383
ACR1994m;game;2017-04-24-16-17-37;5,0;15,0;1000;3,0;2,0;0,0;1,0;row;0,0;True;False;False;0,634000062943;False;0,663000106812
ACR1994m;game;2017-04-24-16-17-37;5,0;16,0;1000;1,0;0,0;2,0;3,0;column;0,0;False;True;False;0,666000127792;True;1,27399992943
ACR1994m;game;2017-04-24-16-17-37;5,0;17,0;1000;0,0;1,0;3,0;2,0;row;1,0;True;True;True;0,667000055313;True;1,29799985886
ACR1994m;game;2017-04-24-16-17-37;5,0;18,0;1000;1,0;2,0;0,0;3,0;row;0,0;False;False;False;0,833999872208;True;0,960000038147
ACR1994m;game;2017-04-24-16-17-37;5,0;19,0;1000;2,0;1,0;3,0;0,0;row;1,0;True;False;True;0,766999959946;True;1,26699995995
ACR1994m;game;2017-04-24-16-17-37;5,0;20,0;1000;2,0;1,0;3,0;0,0;row;1,0;False;False;True;0,766000032425;False;0,569000005722
ACR1994m;game;2017-04-24-16-17-37;5,0;21,0;1000;3,0;1,0;0,0;2,0;column;1,0;False;False;True;0,567000150681;False;0,665999889374
ACR1994m;game;2017-04-24-16-17-37;5,0;22,0;1000;2,0;3,0;1,0;0,0;row;0,0;False;False;False;0,5;True;1,46700000763
ACR1994m;game;2017-04-24-16-17-37;5,0;23,0;1000;1,0;0,0;2,0;3,0;column;1,0;False;False;True;0,832999944687;False;0,831999778748
ACR1994m;game;2017-04-24-16-17-37;5,0;24,0;1000;1,0;3,0;0,0;2,0;column;1,0;True;False;False;0,532999992371;False;1,36100006104
ACR1994m;game;2017-04-24-16-17-37;5,0;25,0;1000;0,0;2,0;3,0;1,0;column;0,0;True;True;True;0,399999856949;True;1,35800004005
ACR1994m;game;2017-04-24-16-17-37;5,0;26,0;1000;3,0;2,0;1,0;0,0;row;0,0;False;True;True;0,566999912262;False;0,799000024796
ACR1994m;game;2017-04-24-16-17-37;5,0;27,0;1000;3,0;0,0;2,0;1,0;column;1,0;True;False;False;0,53200006485;False;0,791999816895
ACR1994m;game;2017-04-24-16-17-37;5,0;28,0;1000;2,0;3,0;0,0;1,0;column;0,0;False;True;True;0,299999952316;False;1,20200014114
ACR1994m;game;2017-04-24-16-17-37;5,0;29,0;1000;0,0;3,0;1,0;2,0;column;1,0;True;False;False;0,399999856949;False;0,793999910355
ACR1994m;game;2017-04-24-16-17-37;5,0;30,0;1000;1,0;0,0;2,0;3,0;column;1,0;True;True;True;0,434000015259;True;1,43099999428
ACR1994m;game;2017-04-24-16-17-37;5,0;31,0;1000;1,0;2,0;0,0;3,0;column;1,0;False;True;False;0,532999992371;True;0,623999834061
ACR1994m;game;2017-04-24-16-17-37;5,0;32,0;1000;3,0;2,0;1,0;0,0;row;1,0;False;True;True;0,599999904633;False;1,46700000763
ACR1994m;game;2017-04-24-16-17-37;5,0;33,0;1000;3,0;2,0;1,0;0,0;row;1,0;True;True;False;0,433000087738;False;1,49800014496
ACR1994m;game;2017-04-24-16-17-37;5,0;34,0;1000;2,0;3,0;1,0;0,0;row;0,0;True;True;True;0,532999992371;True;1,4319999218
ACR1994m;game;2017-04-24-16-17-37;5,0;35,0;1000;3,0;1,0;2,0;0,0;column;0,0;True;False;False;0,332000017166;False;1,3060002327
ACR1994m;game;2017-04-24-16-17-37;5,0;36,0;1000;2,0;3,0;1,0;0,0;row;1,0;True;False;True;0,498999834061;True;0,631000041962
ACR1994m;game;2017-04-24-16-17-37;5,0;37,0;1000;3,0;2,0;0,0;1,0;row;1,0;True;True;False;0,332999944687;False;0,598000049591
ACR1994m;game;2017-04-24-16-17-37;5,0;38,0;1000;0,0;2,0;1,0;3,0;row;1,0;True;False;True;0,365000009537;True;0,973000049591
ACR1994m;game;2017-04-24-16-17-37;5,0;39,0;1000;2,0;0,0;1,0;3,0;column;1,0;False;True;True;0,399000167847;False;1,22400021553
ACR1994m;game;2017-04-24-16-17-37;5,0;40,0;1000;0,0;1,0;3,0;2,0;row;0,0;False;True;False;0,299999952316;True;0,664000034332
ACR1994m;game;2017-04-24-16-17-37;5,0;41,0;1000;1,0;0,0;2,0;3,0;row;1,0;True;True;True;0,432999849319;True;1,29099988937
ACR1994m;game;2017-04-24-16-17-37;5,0;42,0;1000;1,0;2,0;3,0;0,0;row;1,0;True;True;True;0,901000022888;True;0,700000047684
ACR1994m;game;2017-04-24-16-17-37;5,0;43,0;1000;3,0;0,0;2,0;1,0;column;0,0;True;True;True;0,698999881744;True;0,756999969482
ACR1994m;game;2017-04-24-16-17-37;5,0;44,0;1000;2,0;1,0;0,0;3,0;column;0,0;False;False;False;0,933000087738;True;1,00499987602
ACR1994m;game;2017-04-24-16-17-37;5,0;45,0;1000;3,0;0,0;1,0;2,0;row;0,0;True;True;True;0,700000047684;True;0,933000087738
ACR1994m;game;2017-04-24-16-17-37;5,0;46,0;1000;1,0;0,0;3,0;2,0;column;1,0;True;False;False;0,867000102997;False;1,39199995995
ACR1994m;game;2017-04-24-16-17-37;5,0;47,0;1000;2,0;0,0;1,0;3,0;row;1,0;False;False;True;0,799999952316;False;0,628999948502
ACR1994m;game;2017-04-24-16-17-37;5,0;48,0;1000;2,0;1,0;3,0;0,0;row;0,0;False;False;False;0,400000095367;True;1,00099992752
ACR1994m;game;2017-04-24-16-17-37;6,0;1,0;-100;2,0;1,0;0,0;3,0;row;0,0;False;False;True;0,783999919891;False;0,901999950409
ACR1994m;game;2017-04-24-16-17-37;6,0;2,0;-100;2,0;0,0;1,0;3,0;column;1,0;True;False;False;0,650000095367;False;0,626000165939
ACR1994m;game;2017-04-24-16-17-37;6,0;3,0;-100;1,0;2,0;0,0;3,0;column;0,0;True;True;True;0,582000017166;True;0,664999961853
ACR1994m;game;2017-04-24-16-17-37;6,0;4,0;-100;0,0;2,0;1,0;3,0;row;0,0;True;True;True;0,615000009537;True;0,698999881744
ACR1994m;game;2017-04-24-16-17-37;6,0;5,0;-100;0,0;2,0;3,0;1,0;column;0,0;True;True;True;0,549999952316;True;1,49800014496
ACR1994m;game;2017-04-24-16-17-37;6,0;6,0;-100;1,0;0,0;2,0;3,0;column;0,0;False;True;True;1,11600017548;False;1,10199999809
ACR1994m;game;2017-04-24-16-17-37;6,0;7,0;-100;3,0;2,0;1,0;0,0;row;1,0;False;True;True;0,75;False;1,29600000381
ACR1994m;game;2017-04-24-16-17-37;6,0;8,0;-100;3,0;2,0;0,0;1,0;row;0,0;False;True;False;0,71599984169;True;0,697000026703
ACR1994m;game;2017-04-24-16-17-37;6,0;9,0;-100;2,0;3,0;1,0;0,0;row;1,0;True;True;True;0,650000095367;True;1,29299998283
ACR1994m;game;2017-04-24-16-17-37;6,0;10,0;-100;3,0;1,0;2,0;0,0;column;1,0;False;False;False;0,883000135422;True;0,661000013351
ACR1994m;game;2017-04-24-16-17-37;6,0;11,0;-100;2,0;0,0;1,0;3,0;column;0,0;True;False;False;1,28299999237;False;1,46700000763
ACR1994m;game;2017-04-24-16-17-37;6,0;12,0;-100;1,0;0,0;3,0;2,0;column;1,0;False;True;True;0,582000017166;False;0,986999988556
ACR1994m;game;2017-04-24-16-17-37;6,0;13,0;-100;3,0;0,0;2,0;1,0;row;1,0;False;True;False;0,582999944687;True;0,96799993515
ACR1994m;game;2017-04-24-16-17-37;6,0;14,0;-100;1,0;0,0;2,0;3,0;row;1,0;True;True;True;0,550000190735;True;1,0640001297
ACR1994m;game;2017-04-24-16-17-37;6,0;15,0;-100;0,0;1,0;2,0;3,0;row;1,0;True;False;True;0,849999904633;True;1,09899997711
ACR1994m;game;2017-04-24-16-17-37;6,0;16,0;-100;3,0;1,0;2,0;0,0;column;0,0;True;True;False;1,01599979401;False;0,832999944687
ACR1994m;game;2017-04-24-16-17-37;6,0;17,0;-100;3,0;2,0;0,0;1,0;column;0,0;True;False;True;0,849999904633;True;0,830000162125
ACR1994m;game;2017-04-24-16-17-37;6,0;18,0;-100;1,0;3,0;0,0;2,0;column;0,0;True;True;False;0,781000137329;False;0,697999954224
ACR1994m;game;2017-04-24-16-17-37;6,0;19,0;-100;3,0;2,0;1,0;0,0;row;1,0;True;False;True;0,483000040054;True;1,13599991798
ACR1994m;game;2017-04-24-16-17-37;6,0;20,0;-100;2,0;1,0;3,0;0,0;column;1,0;False;False;False;0,849999904633;True;0,757999897003
ACR1994m;game;2017-04-24-16-17-37;6,0;21,0;-100;3,0;0,0;2,0;1,0;column;0,0;False;True;True;0,883999824524;False;1,03600001335
ACR1994m;game;2017-04-24-16-17-37;6,0;22,0;-100;2,0;0,0;3,0;1,0;row;0,0;True;True;False;0,983000040054;False;1,28999996185
ACR1994m;game;2017-04-24-16-17-37;6,0;23,0;-100;1,0;2,0;0,0;3,0;column;1,0;True;True;True;0,981999874115;True;1,30399990082
ACR1994m;game;2017-04-24-16-17-37;6,0;24,0;-100;2,0;3,0;0,0;1,0;column;1,0;False;False;False;0,983999967575;True;1,4960000515
ACR1994m;game;2017-04-24-16-17-37;6,0;25,0;-100;3,0;2,0;0,0;1,0;column;1,0;False;False;True;0,816999912262;False;0,924000024796
ACR1994m;game;2017-04-24-16-17-37;6,0;26,0;-100;3,0;0,0;2,0;1,0;column;1,0;True;False;True;0,448000192642;True;1,0640001297
ACR1994m;game;2017-04-24-16-17-37;6,0;27,0;-100;0,0;1,0;3,0;2,0;row;1,0;False;True;False;0,850000143051;True;0,802000045776
ACR1994m;game;2017-04-24-16-17-37;6,0;28,0;-100;0,0;2,0;1,0;3,0;row;1,0;False;True;False;1,617000103;True;0,565999984741
ACR1994m;game;2017-04-24-16-17-37;6,0;29,0;-100;3,0;0,0;1,0;2,0;row;1,0;False;False;False;1,08200001717;True;1,1289999485
ACR1994m;game;2017-04-24-16-17-37;6,0;30,0;-100;1,0;3,0;2,0;0,0;row;0,0;False;False;False;0,948999881744;True;0,663000106812
ACR1994m;game;2017-04-24-16-17-37;6,0;31,0;-100;1,0;2,0;0,0;3,0;column;1,0;False;False;True;1,11699986458;False;1,25900006294
ACR1994m;game;2017-04-24-16-17-37;6,0;32,0;-100;0,0;2,0;3,0;1,0;column;1,0;True;False;True;0,682000160217;True;0,765000104904
ACR1994m;game;2017-04-24-16-17-37;6,0;33,0;-100;0,0;2,0;3,0;1,0;row;0,0;False;False;False;0,714999914169;True;0,69100022316
ACR1994m;game;2017-04-24-16-17-37;6,0;34,0;-100;1,0;2,0;3,0;0,0;row;0,0;True;False;True;0,484000205994;True;1,41899991035
ACR1994m;game;2017-04-24-16-17-37;6,0;35,0;-100;2,0;3,0;1,0;0,0;row;1,0;False;True;False;0,615000009537;True;1,22900009155
ACR1994m;game;2017-04-24-16-17-37;6,0;36,0;-100;3,0;0,0;2,0;1,0;row;1,0;True;True;True;0,450999975204;True;0,896999835968
ACR1994m;game;2017-04-24-16-17-37;6,0;37,0;-100;0,0;3,0;1,0;2,0;row;0,0;False;True;False;0,583999872208;True;1,19799995422
ACR1994m;game;2017-04-24-16-17-37;6,0;38,0;-100;3,0;1,0;0,0;2,0;column;0,0;False;False;False;0,650000095367;True;1,33599996567
ACR1994m;game;2017-04-24-16-17-37;6,0;39,0;-100;0,0;3,0;2,0;1,0;row;1,0;False;False;False;0,666000127792;True;0,600999832153
ACR1994m;game;2017-04-24-16-17-37;6,0;40,0;-100;2,0;3,0;1,0;0,0;column;0,0;False;True;False;0,684000015259;True;1,26699995995
ACR1994m;game;2017-04-24-16-17-37;6,0;41,0;-100;0,0;1,0;3,0;2,0;column;0,0;False;False;False;0,700000047684;True;0,894999980927
ACR1994m;game;2017-04-24-16-17-37;6,0;42,0;-100;2,0;1,0;3,0;0,0;column;0,0;False;False;False;0,683000087738;True;1,46099996567
ACR1994m;game;2017-04-24-16-17-37;6,0;43,0;-100;1,0;3,0;2,0;0,0;column;1,0;True;False;False;0,948999881744;False;0,569000005722
ACR1994m;game;2017-04-24-16-17-37;6,0;44,0;-100;3,0;2,0;0,0;1,0;row;1,0;False;False;False;0,884000062943;True;1,13499999046
ACR1994m;game;2017-04-24-16-17-37;6,0;45,0;-100;3,0;0,0;1,0;2,0;column;0,0;False;True;True;0,883999824524;False;0,632999897003
ACR1994m;game;2017-04-24-16-17-37;6,0;46,0;-100;2,0;3,0;0,0;1,0;row;0,0;True;False;False;0,517000198364;False;0,697999954224
ACR1994m;game;2017-04-24-16-17-37;6,0;47,0;-100;3,0;2,0;1,0;0,0;row;0,0;True;False;True;0,448999881744;True;0,898000001907
ACR1994m;game;2017-04-24-16-17-37;6,0;48,0;-100;1,0;3,0;2,0;0,0;row;1,0;False;False;False;0,649999856949;True;0,664999961853
ACR1994m;game;2017-04-24-16-17-37;7,0;1,0;-100;3,0;1,0;2,0;0,0;row;1,0;False;False;False;0,582999944687;True;1,23300004005
ACR1994m;game;2017-04-24-16-17-37;7,0;2,0;-100;1,0;2,0;3,0;0,0;column;1,0;True;False;True;0,684000015259;True;0,960999965668
ACR1994m;game;2017-04-24-16-17-37;7,0;3,0;-100;1,0;3,0;2,0;0,0;column;0,0;False;True;False;0,681999921799;True;0,694000005722
ACR1994m;game;2017-04-24-16-17-37;7,0;4,0;-100;3,0;1,0;2,0;0,0;row;0,0;True;False;True;0,679999828339;True;0,866999864578
ACR1994m;game;2017-04-24-16-17-37;7,0;5,0;-100;0,0;1,0;3,0;2,0;column;1,0;True;False;False;0,549999952316;False;1,49099993706
ACR1994m;game;2017-04-24-16-17-37;7,0;6,0;-100;3,0;2,0;1,0;0,0;column;1,0;False;False;True;0,582999944687;False;0,863000154495
ACR1994m;game;2017-04-24-16-17-37;7,0;7,0;-100;2,0;0,0;3,0;1,0;column;1,0;False;True;False;0,416999816895;True;1,43400001526
ACR1994m;game;2017-04-24-16-17-37;7,0;8,0;-100;0,0;3,0;2,0;1,0;row;0,0;False;False;False;0,816999912262;True;0,967000007629
ACR1994m;game;2017-04-24-16-17-37;7,0;9,0;-100;2,0;1,0;3,0;0,0;row;1,0;False;False;False;0,81200003624;True;1,08899998665
ACR1994m;game;2017-04-24-16-17-37;7,0;10,0;-100;2,0;1,0;0,0;3,0;row;1,0;False;True;True;0,983000040054;False;1,29600000381
ACR1994m;game;2017-04-24-16-17-37;7,0;11,0;-100;1,0;3,0;0,0;2,0;row;0,0;True;False;False;0,515000104904;False;0,611999988556
ACR1994m;game;2017-04-24-16-17-37;7,0;12,0;-100;0,0;3,0;2,0;1,0;column;0,0;True;False;True;0,480999946594;True;0,662000179291
ACR1994m;game;2017-04-24-16-17-37;7,0;13,0;-100;3,0;2,0;1,0;0,0;column;0,0;True;True;True;0,516999959946;True;1,39399981499
ACR1994m;game;2017-04-24-16-17-37;7,0;14,0;-100;1,0;3,0;0,0;2,0;column;0,0;False;True;False;0,716000080109;True;0,701999902725
ACR1994m;game;2017-04-24-16-17-37;7,0;15,0;-100;0,0;1,0;3,0;2,0;row;0,0;True;False;False;0,75;False;1,12700009346
ACR1994m;game;2017-04-24-16-17-37;7,0;16,0;-100;3,0;1,0;2,0;0,0;column;1,0;True;True;True;0,615000009537;True;1,19600009918
ACR1994m;game;2017-04-24-16-17-37;7,0;17,0;-100;2,0;0,0;1,0;3,0;row;1,0;False;True;False;0,615999937057;True;0,892000198364
ACR1994m;game;2017-04-24-16-17-37;7,0;18,0;-100;1,0;2,0;3,0;0,0;column;1,0;False;False;True;0,682999849319;False;0,838999986649
ACR1994m;game;2017-04-24-16-17-37;7,0;19,0;-100;2,0;0,0;1,0;3,0;column;0,0;False;True;False;0,483999967575;True;1,49900007248
ACR1994m;game;2017-04-24-16-17-37;7,0;20,0;-100;0,0;3,0;1,0;2,0;column;1,0;False;False;False;0,815999984741;True;0,732000112534
ACR1994m;game;2017-04-24-16-17-37;7,0;21,0;-100;3,0;2,0;0,0;1,0;column;0,0;False;False;False;0,651000022888;True;0,634999990463
ACR1994m;game;2017-04-24-16-17-37;7,0;22,0;-100;3,0;1,0;2,0;0,0;row;0,0;False;True;True;0,765000104904;False;0,530999898911
ACR1994m;game;2017-04-24-16-17-37;7,0;23,0;-100;0,0;1,0;3,0;2,0;column;0,0;True;False;False;0,614000082016;False;1,0569999218
ACR1994m;game;2017-04-24-16-17-37;7,0;24,0;-100;1,0;3,0;2,0;0,0;column;1,0;False;True;True;0,550999879837;False;1,20000004768
ACR1994m;game;2017-04-24-16-17-37;7,0;25,0;-100;0,0;2,0;3,0;1,0;column;0,0;False;False;False;0,448999881744;True;1,50099992752
ACR1994m;game;2017-04-24-16-17-37;7,0;26,0;-100;1,0;3,0;0,0;2,0;row;1,0;False;True;False;0,617000102997;True;1,49699997902
ACR1994m;game;2017-04-24-16-17-37;7,0;27,0;-100;1,0;3,0;2,0;0,0;row;1,0;True;True;False;0,78200006485;False;1,20399999619
ACR1994m;game;2017-04-24-16-17-37;7,0;28,0;-100;2,0;1,0;0,0;3,0;column;1,0;True;True;True;0,583999872208;True;1,02300000191
ACR1994m;game;2017-04-24-16-17-37;7,0;29,0;-100;0,0;3,0;2,0;1,0;row;0,0;True;False;False;0,417000055313;False;1,03799986839
ACR1994m;game;2017-04-24-16-17-37;7,0;30,0;-100;1,0;2,0;0,0;3,0;row;1,0;True;False;True;0,549000024796;True;1,3259999752
ACR1994m;game;2017-04-24-16-17-37;7,0;31,0;-100;1,0;0,0;3,0;2,0;row;0,0;False;False;False;0,714999914169;True;0,569000005722
ACR1994m;game;2017-04-24-16-17-37;7,0;32,0;-100;0,0;3,0;1,0;2,0;column;0,0;False;True;False;0,582999944687;True;0,860000133514
ACR1994m;game;2017-04-24-16-17-37;7,0;33,0;-100;0,0;3,0;1,0;2,0;row;1,0;False;False;False;0,648999929428;True;1,20000004768
ACR1994m;game;2017-04-24-16-17-37;7,0;34,0;-100;0,0;1,0;2,0;3,0;column;1,0;False;False;False;0,715000152588;True;1,33399987221
ACR1994m;game;2017-04-24-16-17-37;7,0;35,0;-100;1,0;0,0;3,0;2,0;column;0,0;False;False;False;0,582000017166;True;1,39100003242
ACR1994m;game;2017-04-24-16-17-37;7,0;36,0;-100;1,0;3,0;0,0;2,0;row;0,0;False;True;False;0,682000160217;True;0,963999986649
ACR1994m;game;2017-04-24-16-17-37;7,0;37,0;-100;0,0;2,0;1,0;3,0;column;1,0;True;False;True;1,18300008774;True;0,729000091553
ACR1994m;game;2017-04-24-16-17-37;7,0;38,0;-100;2,0;0,0;1,0;3,0;row;1,0;True;False;True;1,382999897;True;1,15700006485
ACR1994m;game;2017-04-24-16-17-37;7,0;39,0;-100;3,0;0,0;2,0;1,0;column;1,0;False;False;False;0,615999937057;True;1,32700014114
ACR1994m;game;2017-04-24-16-17-37;7,0;40,0;-100;0,0;1,0;2,0;3,0;row;0,0;False;True;False;1,08199977875;True;1,39800000191
ACR1994m;game;2017-04-24-16-17-37;7,0;41,0;-100;2,0;0,0;3,0;1,0;column;0,0;True;True;True;0,684000015259;True;1,33299994469
ACR1994m;game;2017-04-24-16-17-37;7,0;42,0;-100;2,0;1,0;0,0;3,0;column;0,0;True;True;True;0,516999959946;True;1,46000003815
ACR1994m;game;2017-04-24-16-17-37;7,0;43,0;-100;3,0;2,0;1,0;0,0;column;1,0;True;True;False;0,71599984169;False;1,52800011635
ACR1994m;game;2017-04-24-16-17-37;7,0;44,0;-100;3,0;2,0;1,0;0,0;row;0,0;False;True;False;0,615999937057;True;1,22199988365
ACR1994m;game;2017-04-24-16-17-37;7,0;45,0;-100;2,0;0,0;3,0;1,0;column;0,0;False;True;True;0,78200006485;False;0,634000062943
ACR1994m;game;2017-04-24-16-17-37;7,0;46,0;-100;1,0;0,0;2,0;3,0;column;0,0;True;True;True;0,616999864578;True;0,625
ACR1994m;game;2017-04-24-16-17-37;7,0;47,0;-100;0,0;2,0;1,0;3,0;column;1,0;False;True;False;0,584000110626;True;0,598999977112
ACR1994m;game;2017-04-24-16-17-37;7,0;48,0;-100;1,0;0,0;3,0;2,0;row;1,0;True;True;False;0,782999992371;False;1,20000004768
ACR1994m;game;2017-04-24-16-17-37;8,0;1,0;1000;3,0;2,0;1,0;0,0;column;1,0;False;True;False;0,566999912262;True;1,03699994087
ACR1994m;game;2017-04-24-16-17-37;8,0;2,0;1000;3,0;1,0;0,0;2,0;column;1,0;True;False;False;0,700000047684;False;0,958999872208
ACR1994m;game;2017-04-24-16-17-37;8,0;3,0;1000;2,0;0,0;3,0;1,0;row;0,0;False;False;False;0,766999959946;True;0,660000085831
ACR1994m;game;2017-04-24-16-17-37;8,0;4,0;1000;0,0;3,0;2,0;1,0;column;0,0;True;True;True;0,633000135422;True;0,756999969482
ACR1994m;game;2017-04-24-16-17-37;8,0;5,0;1000;2,0;1,0;3,0;0,0;column;1,0;True;False;False;0,601000070572;False;1,49499988556
ACR1994m;game;2017-04-24-16-17-37;8,0;6,0;1000;2,0;1,0;0,0;3,0;row;0,0;False;True;True;0,532999992371;False;0,90499997139
ACR1994m;game;2017-04-24-16-17-37;8,0;7,0;1000;2,0;0,0;1,0;3,0;column;0,0;False;False;False;0,667000055313;True;1,33300018311
ACR1994m;game;2017-04-24-16-17-37;8,0;8,0;1000;2,0;0,0;1,0;3,0;row;0,0;True;False;False;0,600000143051;False;1,05800008774
ACR1994m;game;2017-04-24-16-17-37;8,0;9,0;1000;1,0;3,0;2,0;0,0;column;0,0;True;False;False;0,634000062943;False;1,1320002079
ACR1994m;game;2017-04-24-16-17-37;8,0;10,0;1000;3,0;0,0;1,0;2,0;column;0,0;True;True;True;0,398999929428;True;1,26300001144
ACR1994m;game;2017-04-24-16-17-37;8,0;11,0;1000;2,0;3,0;0,0;1,0;column;1,0;False;False;False;0,434000015259;True;0,56500005722
ACR1994m;game;2017-04-24-16-17-37;8,0;12,0;1000;1,0;3,0;0,0;2,0;row;1,0;False;True;False;0,599999904633;True;0,802000045776
ACR1994m;game;2017-04-24-16-17-37;8,0;13,0;1000;2,0;0,0;3,0;1,0;column;0,0;True;True;True;0,567000150681;True;0,743000030518
ACR1994m;game;2017-04-24-16-17-37;8,0;14,0;1000;0,0;3,0;1,0;2,0;column;1,0;False;True;False;0,600999832153;True;1,132999897
ACR1994m;game;2017-04-24-16-17-37;8,0;15,0;1000;0,0;1,0;2,0;3,0;row;0,0;False;True;False;0,632999897003;True;0,897000074387
ACR1994m;game;2017-04-24-16-17-37;8,0;16,0;1000;3,0;1,0;0,0;2,0;row;0,0;False;False;False;0,766000032425;True;0,531999826431
ACR1994m;game;2017-04-24-16-17-37;8,0;17,0;1000;1,0;3,0;2,0;0,0;row;0,0;True;True;True;0,665999889374;True;1,27200007439
ACR1994m;game;2017-04-24-16-17-37;8,0;18,0;1000;2,0;3,0;0,0;1,0;column;1,0;True;False;False;0,834000110626;False;1,1289999485
ACR1994m;game;2017-04-24-16-17-37;8,0;19,0;1000;2,0;1,0;0,0;3,0;row;1,0;False;False;False;0,599999904633;True;1,23300004005
ACR1994m;game;2017-04-24-16-17-37;8,0;20,0;1000;3,0;1,0;2,0;0,0;row;1,0;False;False;False;0,833999872208;True;1,49799990654
ACR1994m;game;2017-04-24-16-17-37;8,0;21,0;1000;0,0;1,0;3,0;2,0;column;1,0;True;True;True;1,19900012016;True;1,42600011826
ACR1994m;game;2017-04-24-16-17-37;8,0;22,0;1000;3,0;2,0;0,0;1,0;row;1,0;False;True;True;1,13300013542;False;1,3630001545
ACR1994m;game;2017-04-24-16-17-37;8,0;23,0;1000;3,0;0,0;1,0;2,0;column;0,0;False;False;False;0,566999912262;True;0,94000005722
ACR1994m;game;2017-04-24-16-17-37;8,0;24,0;1000;1,0;0,0;3,0;2,0;column;1,0;False;True;False;0,666000127792;True;0,766000032425
ACR1994m;game;2017-04-24-16-17-37;8,0;25,0;1000;0,0;3,0;2,0;1,0;row;1,0;False;False;False;0,798000097275;True;1,43400001526
ACR1994m;game;2017-04-24-16-17-37;8,0;26,0;1000;3,0;1,0;2,0;0,0;row;0,0;True;False;True;0,700000047684;True;0,930999994278
ACR1994m;game;2017-04-24-16-17-37;8,0;27,0;1000;0,0;2,0;3,0;1,0;column;0,0;False;False;False;0,900000095367;True;0,607000112534
ACR1994m;game;2017-04-24-16-17-37;8,0;28,0;1000;1,0;0,0;3,0;2,0;row;0,0;True;False;False;0,967000007629;False;1,13000011444
ACR1994m;game;2017-04-24-16-17-37;8,0;29,0;1000;1,0;2,0;3,0;0,0;row;0,0;False;True;False;0,532999992371;True;0,602999925613
ACR1994m;game;2017-04-24-16-17-37;8,0;30,0;1000;2,0;1,0;0,0;3,0;row;1,0;True;True;True;0,698999881744;True;1,03500008583
ACR1994m;game;2017-04-24-16-17-37;8,0;31,0;1000;3,0;0,0;1,0;2,0;row;1,0;False;True;False;0,567000150681;True;1,50200009346
ACR1994m;game;2017-04-24-16-17-37;8,0;32,0;1000;0,0;3,0;1,0;2,0;row;0,0;True;True;False;0,563999891281;False;1,10299992561
ACR1994m;game;2017-04-24-16-17-37;8,0;33,0;1000;3,0;2,0;0,0;1,0;column;1,0;True;False;False;0,632999897003;False;0,755000114441
ACR1994m;game;2017-04-24-16-17-37;8,0;34,0;1000;1,0;2,0;0,0;3,0;row;1,0;True;False;True;0,433000087738;True;1,2650001049
ACR1994m;game;2017-04-24-16-17-37;8,0;35,0;1000;1,0;3,0;2,0;0,0;column;0,0;False;True;False;0,333000183105;True;1,49699997902
ACR1994m;game;2017-04-24-16-17-37;8,0;36,0;1000;1,0;3,0;0,0;2,0;row;1,0;True;False;True;0,600000143051;True;0,699000120163
ACR1994m;game;2017-04-24-16-17-37;8,0;37,0;1000;1,0;2,0;3,0;0,0;column;1,0;False;False;False;0,400000095367;True;1,07100009918
ACR1994m;game;2017-04-24-16-17-37;8,0;38,0;1000;2,0;0,0;3,0;1,0;column;0,0;False;False;False;0,565999984741;True;1,06299996376
ACR1994m;game;2017-04-24-16-17-37;8,0;39,0;1000;2,0;0,0;3,0;1,0;row;1,0;False;True;False;0,601000070572;True;1,0720000267
ACR1994m;game;2017-04-24-16-17-37;8,0;40,0;1000;0,0;3,0;1,0;2,0;column;0,0;False;True;False;0,600000143051;True;1,35800004005
ACR1994m;game;2017-04-24-16-17-37;8,0;41,0;1000;1,0;0,0;2,0;3,0;row;0,0;False;False;False;0,733000040054;True;1,33599996567
ACR1994m;game;2017-04-24-16-17-37;8,0;42,0;1000;0,0;3,0;1,0;2,0;row;0,0;False;False;False;0,565999984741;True;1,29400014877
ACR1994m;game;2017-04-24-16-17-37;8,0;43,0;1000;2,0;3,0;0,0;1,0;column;0,0;True;False;False;0,633000135422;False;1,16799998283
ACR1994m;game;2017-04-24-16-17-37;8,0;44,0;1000;0,0;3,0;1,0;2,0;column;0,0;True;False;False;0,733999967575;False;1,40199995041
ACR1994m;game;2017-04-24-16-17-37;8,0;45,0;1000;3,0;0,0;1,0;2,0;row;1,0;True;False;False;0,46599984169;False;1,43700003624
ACR1994m;game;2017-04-24-16-17-37;8,0;46,0;1000;3,0;2,0;0,0;1,0;column;1,0;False;False;False;0,5;True;0,903000116348
ACR1994m;game;2017-04-24-16-17-37;8,0;47,0;1000;1,0;2,0;0,0;3,0;row;0,0;True;True;False;0,5;False;1,50099992752
ACR1994m;game;2017-04-24-16-17-37;8,0;48,0;1000;1,0;3,0;0,0;2,0;column;0,0;True;False;False;0,5;False;0,764999866486
ACR1994m;game;2017-04-24-16-17-37;9,0;1,0;100;2,0;0,0;1,0;3,0;column;1,0;True;False;True;0,900000095367;True;1,26600003242
ACR1994m;game;2017-04-24-16-17-37;9,0;2,0;100;1,0;0,0;3,0;2,0;row;1,0;True;True;False;0,56500005722;False;0,598999977112
ACR1994m;game;2017-04-24-16-17-37;9,0;3,0;100;2,0;1,0;0,0;3,0;column;0,0;True;False;True;0,766999959946;True;1,37099981308
ACR1994m;game;2017-04-24-16-17-37;9,0;4,0;100;2,0;1,0;3,0;0,0;column;1,0;True;True;False;0,565999984741;False;0,525000095367
ACR1994m;game;2017-04-24-16-17-37;9,0;5,0;100;3,0;2,0;1,0;0,0;row;0,0;True;True;False;0,5;False;1,49500012398
ACR1994m;game;2017-04-24-16-17-37;9,0;6,0;100;2,0;3,0;0,0;1,0;column;1,0;True;True;True;0,567000150681;True;1,15799999237
ACR1994m;game;2017-04-24-16-17-37;9,0;7,0;100;2,0;0,0;1,0;3,0;row;1,0;False;False;False;0,5;True;0,566999912262
ACR1994m;game;2017-04-24-16-17-37;9,0;8,0;100;3,0;1,0;0,0;2,0;row;0,0;False;False;False;1,03399991989;True;1,40100002289
ACR1994m;game;2017-04-24-16-17-37;9,0;9,0;100;2,0;3,0;0,0;1,0;row;0,0;True;True;False;0,631999969482;False;1,23599982262
ACR1994m;game;2017-04-24-16-17-37;9,0;10,0;100;2,0;1,0;0,0;3,0;row;1,0;True;True;True;0,566999912262;True;1,03699994087
ACR1994m;game;2017-04-24-16-17-37;9,0;11,0;100;1,0;2,0;3,0;0,0;row;1,0;False;True;False;0,433000087738;True;1,39700007439
ACR1994m;game;2017-04-24-16-17-37;9,0;12,0;100;0,0;1,0;3,0;2,0;row;1,0;False;True;False;0,633999824524;True;1,46000003815
ACR1994m;game;2017-04-24-16-17-37;9,0;13,0;100;2,0;0,0;3,0;1,0;column;1,0;True;True;False;0,532999992371;False;1,27300000191
ACR1994m;game;2017-04-24-16-17-37;9,0;14,0;100;0,0;1,0;3,0;2,0;column;1,0;True;True;True;0,367000102997;True;0,53200006485
ACR1994m;game;2017-04-24-16-17-37;9,0;15,0;100;3,0;0,0;2,0;1,0;column;0,0;False;True;False;0,632999897003;True;0,733000040054
ACR1994m;game;2017-04-24-16-17-37;9,0;16,0;100;1,0;2,0;0,0;3,0;column;1,0;True;False;True;0,599999904633;True;1,33299994469
ACR1994m;game;2017-04-24-16-17-37;9,0;17,0;100;2,0;1,0;3,0;0,0;row;1,0;False;True;True;0,399999856949;False;0,934000015259
ACR1994m;game;2017-04-24-16-17-37;9,0;18,0;100;1,0;2,0;3,0;0,0;row;0,0;False;True;False;0,5;True;1,28700017929
ACR1994m;game;2017-04-24-16-17-37;9,0;19,0;100;0,0;1,0;3,0;2,0;row;0,0;True;False;True;0,566999912262;True;0,532999992371
ACR1994m;game;2017-04-24-16-17-37;9,0;20,0;100;0,0;2,0;3,0;1,0;row;1,0;True;True;False;0,432999849319;False;0,736000061035
ACR1994m;game;2017-04-24-16-17-37;9,0;21,0;100;0,0;1,0;2,0;3,0;row;0,0;True;False;True;0,467000007629;True;1,50199985504
ACR1994m;game;2017-04-24-16-17-37;9,0;22,0;100;0,0;1,0;2,0;3,0;row;1,0;False;False;False;0,532999992371;True;1,26600003242
ACR1994m;game;2017-04-24-16-17-37;9,0;23,0;100;0,0;2,0;1,0;3,0;row;0,0;False;True;False;0,633000135422;True;0,838999986649
ACR1994m;game;2017-04-24-16-17-37;9,0;24,0;100;0,0;2,0;3,0;1,0;row;0,0;False;True;False;0,632999897003;True;1,43499994278
ACR1994m;game;2017-04-24-16-17-37;9,0;25,0;100;3,0;2,0;0,0;1,0;row;0,0;True;False;True;0,799999952316;True;0,836999893188
ACR1994m;game;2017-04-24-16-17-37;9,0;26,0;100;2,0;1,0;3,0;0,0;row;0,0;False;True;False;0,5;True;1,4960000515
ACR1994m;game;2017-04-24-16-17-37;9,0;27,0;100;2,0;0,0;3,0;1,0;column;0,0;True;True;False;0,800000190735;False;1,13199996948
ACR1994m;game;2017-04-24-16-17-37;9,0;28,0;100;2,0;3,0;1,0;0,0;row;0,0;False;False;True;0,667000055313;False;1,19699978828
ACR1994m;game;2017-04-24-16-17-37;9,0;29,0;100;1,0;3,0;0,0;2,0;row;1,0;True;True;False;0,299999952316;False;1,16599988937
ACR1994m;game;2017-04-24-16-17-37;9,0;30,0;100;0,0;1,0;3,0;2,0;row;0,0;False;False;True;0,503999948502;False;1,40000009537
ACR1994m;game;2017-04-24-16-17-37;9,0;31,0;100;1,0;2,0;0,0;3,0;row;0,0;False;False;False;0,399999856949;True;1,46500015259
ACR1994m;game;2017-04-24-16-17-37;9,0;32,0;100;2,0;1,0;0,0;3,0;row;0,0;True;True;False;1,0;False;1,13899993896
ACR1994m;game;2017-04-24-16-17-37;9,0;33,0;100;3,0;2,0;0,0;1,0;column;1,0;True;True;True;0,632999897003;True;0,731999874115
ACR1994m;game;2017-04-24-16-17-37;9,0;34,0;100;3,0;0,0;2,0;1,0;column;1,0;True;True;False;0,400000095367;False;0,600000143051
ACR1994m;game;2017-04-24-16-17-37;9,0;35,0;100;0,0;2,0;3,0;1,0;column;0,0;False;True;True;0,299999952316;False;1,36599993706
ACR1994m;game;2017-04-24-16-17-37;9,0;36,0;100;1,0;3,0;2,0;0,0;row;0,0;True;False;False;0,366999864578;False;0,724999904633
ACR1994m;game;2017-04-24-16-17-37;9,0;37,0;100;3,0;0,0;2,0;1,0;column;0,0;True;False;True;0,200000047684;True;1,02400016785
ACR1994m;game;2017-04-24-16-17-37;9,0;38,0;100;2,0;0,0;3,0;1,0;column;1,0;False;True;False;0,500999927521;True;1,13300013542
ACR1994m;game;2017-04-24-16-17-37;9,0;39,0;100;1,0;3,0;0,0;2,0;column;0,0;True;False;False;0,665999889374;False;1,07100009918
ACR1994m;game;2017-04-24-16-17-37;9,0;40,0;100;2,0;0,0;3,0;1,0;column;0,0;False;False;True;0,332999944687;False;0,699000120163
ACR1994m;game;2017-04-24-16-17-37;9,0;41,0;100;2,0;1,0;3,0;0,0;row;0,0;True;False;False;0,367000102997;False;0,828999996185
ACR1994m;game;2017-04-24-16-17-37;9,0;42,0;100;1,0;0,0;2,0;3,0;row;1,0;False;False;True;0,266000032425;False;0,593999862671
ACR1994m;game;2017-04-24-16-17-37;9,0;43,0;100;0,0;2,0;3,0;1,0;column;1,0;True;True;False;0,200999975204;False;1,132999897
ACR1994m;game;2017-04-24-16-17-37;9,0;44,0;100;2,0;3,0;1,0;0,0;column;1,0;False;True;True;0,332999944687;False;0,938999891281
ACR1994m;game;2017-04-24-16-17-37;9,0;45,0;100;1,0;0,0;3,0;2,0;column;0,0;False;False;False;0,300000190735;True;0,930999994278
ACR1994m;game;2017-04-24-16-17-37;9,0;46,0;100;2,0;0,0;3,0;1,0;row;0,0;True;True;False;0,632999897003;False;0,533999919891
ACR1994m;game;2017-04-24-16-17-37;9,0;47,0;100;3,0;2,0;1,0;0,0;column;1,0;False;False;True;0,367000102997;False;0,736999988556
ACR1994m;game;2017-04-24-16-17-37;9,0;48,0;100;1,0;0,0;3,0;2,0;column;1,0;False;True;False;0,266999959946;True;1,45999979973
ACR1994m;game;2017-04-24-16-17-37;10,0;1,0;-100;2,0;3,0;0,0;1,0;row;0,0;False;False;False;0,583000183105;True;0,770999908447
ACR1994m;game;2017-04-24-16-17-37;10,0;2,0;-100;2,0;3,0;0,0;1,0;row;1,0;False;True;True;0,516999959946;False;0,827000141144
ACR1994m;game;2017-04-24-16-17-37;10,0;3,0;-100;3,0;0,0;1,0;2,0;column;0,0;True;True;False;0,382999897003;False;1,46199989319
ACR1994m;game;2017-04-24-16-17-37;10,0;4,0;-100;3,0;0,0;1,0;2,0;row;0,0;False;False;True;0,549000024796;False;0,734000205994
ACR1994m;game;2017-04-24-16-17-37;10,0;5,0;-100;3,0;1,0;2,0;0,0;row;1,0;True;False;False;0,384000062943;False;1,11899995804
ACR1994m;game;2017-04-24-16-17-37;10,0;6,0;-100;2,0;3,0;0,0;1,0;column;1,0;True;False;False;0,651000022888;False;1,35700011253
ACR1994m;game;2017-04-24-16-17-37;10,0;7,0;-100;1,0;3,0;0,0;2,0;column;1,0;True;False;False;0,617000102997;False;1,5
ACR1994m;game;2017-04-24-16-17-37;10,0;8,0;-100;1,0;0,0;3,0;2,0;column;0,0;True;False;False;0,650000095367;False;0,995000123978
ACR1994m;game;2017-04-24-16-17-37;10,0;9,0;-100;2,0;3,0;1,0;0,0;column;0,0;True;True;True;0,415999889374;True;0,56200003624
ACR1994m;game;2017-04-24-16-17-37;10,0;10,0;-100;1,0;2,0;3,0;0,0;row;1,0;True;True;True;0,817000150681;True;0,801000118256
ACR1994m;game;2017-04-24-16-17-37;10,0;11,0;-100;3,0;1,0;0,0;2,0;column;1,0;False;True;False;0,650000095367;True;1,42499995232
ACR1994m;game;2017-04-24-16-17-37;10,0;12,0;-100;2,0;3,0;1,0;0,0;row;0,0;True;False;True;0,516999959946;True;1,20399999619
ACR1994m;game;2017-04-24-16-17-37;10,0;13,0;-100;3,0;0,0;2,0;1,0;row;0,0;False;False;False;0,517000198364;True;1,15900015831
ACR1994m;game;2017-04-24-16-17-37;10,0;14,0;-100;1,0;2,0;3,0;0,0;column;0,0;False;True;False;0,716000080109;True;0,891000032425
ACR1994m;game;2017-04-24-16-17-37;10,0;15,0;-100;1,0;2,0;0,0;3,0;column;0,0;False;False;False;0,649999856949;True;0,899999856949
ACR1994m;game;2017-04-24-16-17-37;10,0;16,0;-100;2,0;1,0;3,0;0,0;column;1,0;True;False;True;0,450000047684;True;1,0600001812
ACR1994m;game;2017-04-24-16-17-37;10,0;17,0;-100;1,0;0,0;2,0;3,0;column;1,0;True;True;False;0,583999872208;False;0,868000030518
ACR1994m;game;2017-04-24-16-17-37;10,0;18,0;-100;1,0;2,0;0,0;3,0;row;0,0;False;False;False;0,649000167847;True;1,2009999752
ACR1994m;game;2017-04-24-16-17-37;10,0;19,0;-100;2,0;3,0;1,0;0,0;column;1,0;False;True;False;0,616999864578;True;1,36100006104
ACR1994m;game;2017-04-24-16-17-37;10,0;20,0;-100;2,0;1,0;0,0;3,0;row;1,0;True;True;True;0,483000040054;True;1,19799995422
ACR1994m;game;2017-04-24-16-17-37;10,0;21,0;-100;1,0;0,0;2,0;3,0;column;1,0;False;False;False;0,549000024796;True;1,26600003242
ACR1994m;game;2017-04-24-16-17-37;10,0;22,0;-100;1,0;2,0;3,0;0,0;row;1,0;False;True;False;0,516000032425;True;0,763999938965
ACR1994m;game;2017-04-24-16-17-37;10,0;23,0;-100;1,0;0,0;2,0;3,0;row;0,0;False;False;False;0,649999856949;True;1,45299983025
ACR1994m;game;2017-04-24-16-17-37;10,0;24,0;-100;2,0;0,0;3,0;1,0;row;1,0;False;True;False;0,516999959946;True;0,699999809265
ACR1994m;game;2017-04-24-16-17-37;10,0;25,0;-100;1,0;0,0;3,0;2,0;column;1,0;True;False;False;0,717000007629;False;0,901000022888
ACR1994m;game;2017-04-24-16-17-37;10,0;26,0;-100;2,0;1,0;3,0;0,0;row;0,0;True;True;False;0,583000183105;False;1,39800000191
ACR1994m;game;2017-04-24-16-17-37;10,0;27,0;-100;2,0;1,0;3,0;0,0;row;0,0;False;False;False;0,549999952316;True;1,49499988556
ACR1994m;game;2017-04-24-16-17-37;10,0;28,0;-100;0,0;2,0;1,0;3,0;row;1,0;True;False;False;0,75;False;0,591000080109
ACR1994m;game;2017-04-24-16-17-37;10,0;29,0;-100;0,0;3,0;1,0;2,0;row;0,0;True;True;True;0,516999959946;True;0,671000003815
ACR1994m;game;2017-04-24-16-17-37;10,0;30,0;-100;0,0;1,0;3,0;2,0;row;1,0;True;True;False;0,598999977112;False;0,700000047684
ACR1994m;game;2017-04-24-16-17-37;10,0;31,0;-100;0,0;2,0;1,0;3,0;row;0,0;False;False;True;0,34700012207;False;1,29100012779
ACR1994m;game;2017-04-24-16-17-37;10,0;32,0;-100;2,0;0,0;1,0;3,0;row;0,0;True;False;False;0,414000034332;False;0,621000051498
ACR1994m;game;2017-04-24-16-17-37;10,0;33,0;-100;2,0;3,0;0,0;1,0;column;0,0;False;False;False;0,483000040054;True;1,00499987602
ACR1994m;game;2017-04-24-16-17-37;10,0;34,0;-100;0,0;1,0;3,0;2,0;row;0,0;False;True;False;0,551000118256;True;1,39400005341
ACR1994m;game;2017-04-24-16-17-37;10,0;35,0;-100;0,0;2,0;3,0;1,0;row;0,0;True;False;True;0,498000144958;True;0,699000120163
ACR1994m;game;2017-04-24-16-17-37;10,0;36,0;-100;2,0;3,0;0,0;1,0;row;1,0;True;True;False;0,515999794006;False;0,926000118256
ACR1994m;game;2017-04-24-16-17-37;10,0;37,0;-100;2,0;1,0;0,0;3,0;row;0,0;True;True;True;0,383000135422;True;0,730000019073
ACR1994m;game;2017-04-24-16-17-37;10,0;38,0;-100;0,0;2,0;3,0;1,0;row;1,0;True;True;True;0,514000177383;True;0,891000032425
ACR1994m;game;2017-04-24-16-17-37;10,0;39,0;-100;3,0;2,0;0,0;1,0;row;0,0;True;True;False;0,450000047684;False;0,865999937057
ACR1994m;game;2017-04-24-16-17-37;10,0;40,0;-100;2,0;1,0;3,0;0,0;column;0,0;True;True;True;0,481000185013;True;1,26200008392
ACR1994m;game;2017-04-24-16-17-37;10,0;41,0;-100;2,0;1,0;0,0;3,0;column;0,0;False;True;False;0,716000080109;True;0,763000011444
ACR1994m;game;2017-04-24-16-17-37;10,0;42,0;-100;0,0;2,0;3,0;1,0;column;1,0;False;False;False;0,681999921799;True;1,257999897
ACR1994m;game;2017-04-24-16-17-37;10,0;43,0;-100;3,0;1,0;0,0;2,0;row;0,0;True;False;True;0,549999952316;True;1,1360001564
ACR1994m;game;2017-04-24-16-17-37;10,0;44,0;-100;2,0;1,0;0,0;3,0;column;1,0;False;False;False;0,519000053406;True;0,539999961853
ACR1994m;game;2017-04-24-16-17-37;10,0;45,0;-100;2,0;3,0;1,0;0,0;row;0,0;False;False;True;0,582000017166;False;1,33700013161
ACR1994m;game;2017-04-24-16-17-37;10,0;46,0;-100;3,0;1,0;0,0;2,0;column;1,0;True;False;False;0,415999889374;False;0,836000204086
ACR1994m;game;2017-04-24-16-17-37;10,0;47,0;-100;3,0;0,0;1,0;2,0;row;1,0;True;True;False;0,516999959946;False;1,20000004768
ACR1994m;game;2017-04-24-16-17-37;10,0;48,0;-100;3,0;1,0;0,0;2,0;column;0,0;True;False;False;0,75;False;0,901999950409
ACR1994m;game;2017-04-24-16-17-37;11,0;1,0;100;0,0;3,0;2,0;1,0;column;0,0;False;False;False;0,433000087738;True;0,738000154495
ACR1994m;game;2017-04-24-16-17-37;11,0;2,0;100;2,0;0,0;1,0;3,0;column;1,0;False;False;True;0,634000062943;False;0,864000082016
ACR1994m;game;2017-04-24-16-17-37;11,0;3,0;100;1,0;0,0;2,0;3,0;row;0,0;True;True;False;0,232999801636;False;0,828999996185
ACR1994m;game;2017-04-24-16-17-37;11,0;4,0;100;3,0;1,0;0,0;2,0;row;1,0;False;True;True;0,167000055313;False;0,632999897003
ACR1994m;game;2017-04-24-16-17-37;11,0;5,0;100;0,0;1,0;2,0;3,0;column;0,0;True;True;False;0,400000095367;False;1,367000103
ACR1994m;game;2017-04-24-16-17-37;11,0;6,0;100;3,0;0,0;2,0;1,0;row;1,0;True;False;True;0,399999856949;True;1,1970000267
ACR1994m;game;2017-04-24-16-17-37;11,0;7,0;100;2,0;3,0;1,0;0,0;column;0,0;False;False;False;0,59900021553;True;1,2349998951
ACR1994m;game;2017-04-24-16-17-37;11,0;8,0;100;0,0;2,0;1,0;3,0;column;1,0;False;False;True;0,533999919891;False;0,658999919891
ACR1994m;game;2017-04-24-16-17-37;11,0;9,0;100;1,0;3,0;2,0;0,0;row;1,0;True;False;False;0,334000110626;False;0,829999923706
ACR1994m;game;2017-04-24-16-17-37;11,0;10,0;100;3,0;1,0;0,0;2,0;row;0,0;True;False;True;0,266999959946;True;0,931999921799
ACR1994m;game;2017-04-24-16-17-37;11,0;11,0;100;3,0;2,0;1,0;0,0;column;1,0;True;True;True;0,733000040054;True;1,26699995995
ACR1994m;game;2017-04-24-16-17-37;11,0;12,0;100;0,0;2,0;1,0;3,0;column;0,0;False;False;True;0,700000047684;False;1,09500002861
ACR1994m;game;2017-04-24-16-17-37;11,0;13,0;100;1,0;0,0;3,0;2,0;row;0,0;True;True;False;0,5;False;0,807000160217
ACR1994m;game;2017-04-24-16-17-37;11,0;14,0;100;3,0;1,0;2,0;0,0;row;1,0;False;True;True;0,365999937057;False;0,766999959946
ACR1994m;game;2017-04-24-16-17-37;11,0;15,0;100;0,0;3,0;1,0;2,0;column;1,0;False;False;False;0,299999952316;True;1,52999997139
ACR1994m;game;2017-04-24-16-17-37;11,0;16,0;100;1,0;0,0;2,0;3,0;column;0,0;False;False;True;0,632999897003;False;0,528000116348
ACR1994m;game;2017-04-24-16-17-37;11,0;17,0;100;3,0;2,0;0,0;1,0;column;1,0;False;True;False;0,299000024796;True;0,866999864578
ACR1994m;game;2017-04-24-16-17-37;11,0;18,0;100;0,0;2,0;1,0;3,0;row;1,0;False;False;True;0,633999824524;False;0,993000030518
ACR1994m;game;2017-04-24-16-17-37;11,0;19,0;100;3,0;2,0;0,0;1,0;column;0,0;True;False;False;0,300999879837;False;1,3710000515
ACR1994m;game;2017-04-24-16-17-37;11,0;20,0;100;0,0;3,0;2,0;1,0;column;1,0;False;True;True;0,266999959946;False;0,700999975204
ACR1994m;game;2017-04-24-16-17-37;11,0;21,0;100;3,0;1,0;2,0;0,0;column;1,0;True;True;True;0,333000183105;True;0,804999828339
ACR1994m;game;2017-04-24-16-17-37;11,0;22,0;100;3,0;1,0;2,0;0,0;row;0,0;False;False;True;0,367000102997;False;1,36800003052
ACR1994m;game;2017-04-24-16-17-37;11,0;23,0;100;3,0;2,0;1,0;0,0;column;0,0;False;False;False;0,367000102997;True;0,793999910355
ACR1994m;game;2017-04-24-16-17-37;11,0;24,0;100;2,0;1,0;3,0;0,0;column;1,0;False;True;False;0,365000009537;True;1,29999995232
ACR1994m;game;2017-04-24-16-17-37;11,0;25,0;100;0,0;1,0;2,0;3,0;column;1,0;False;True;True;0,867000102997;False;1,19199991226
ACR1994m;game;2017-04-24-16-17-37;11,0;26,0;100;2,0;3,0;0,0;1,0;row;1,0;False;True;False;1,23300004005;True;1,257999897
ACR1994m;game;2017-04-24-16-17-37;11,0;27,0;100;0,0;3,0;2,0;1,0;row;1,0;True;False;True;0,799999952316;True;0,668999910355
ACR1994m;game;2017-04-24-16-17-37;11,0;28,0;100;1,0;0,0;2,0;3,0;row;0,0;False;True;False;0,832000017166;True;0,996999979019
ACR1994m;game;2017-04-24-16-17-37;11,0;29,0;100;0,0;3,0;1,0;2,0;row;0,0;False;True;False;1,13199996948;True;1,03200006485
ACR1994m;game;2017-04-24-16-17-37;11,0;30,0;100;3,0;1,0;0,0;2,0;row;1,0;True;True;False;1,03299999237;False;1,00200009346
ACR1994m;game;2017-04-24-16-17-37;11,0;31,0;100;3,0;2,0;0,0;1,0;row;1,0;False;False;True;0,332999944687;False;0,635999917984
ACR1994m;game;2017-04-24-16-17-37;11,0;32,0;100;3,0;1,0;0,0;2,0;column;0,0;True;True;True;0,367000102997;True;0,935000181198
ACR1994m;game;2017-04-24-16-17-37;11,0;33,0;100;0,0;1,0;2,0;3,0;row;0,0;False;False;False;1,09999990463;True;0,824999809265
ACR1994m;game;2017-04-24-16-17-37;11,0;34,0;100;0,0;3,0;1,0;2,0;column;1,0;True;False;False;0,799999952316;False;1,03400015831
ACR1994m;game;2017-04-24-16-17-37;11,0;35,0;100;2,0;3,0;0,0;1,0;column;1,0;False;True;True;0,434000015259;False;1,12099981308
ACR1994m;game;2017-04-24-16-17-37;11,0;36,0;100;0,0;2,0;1,0;3,0;row;0,0;True;False;True;1,23199987411;True;1,19499993324
ACR1994m;game;2017-04-24-16-17-37;11,0;37,0;100;3,0;0,0;1,0;2,0;column;1,0;True;False;False;0,900000095367;False;0,994000196457
ACR1994m;game;2017-04-24-16-17-37;11,0;38,0;100;0,0;3,0;1,0;2,0;row;1,0;False;True;False;0,733000040054;True;0,831000089645
ACR1994m;game;2017-04-24-16-17-37;11,0;39,0;100;2,0;0,0;1,0;3,0;column;0,0;False;False;True;0,767000198364;False;1,0609998703
ACR1994m;game;2017-04-24-16-17-37;11,0;40,0;100;2,0;3,0;0,0;1,0;row;0,0;False;True;False;0,401000022888;True;1,09899997711
ACR1994m;game;2017-04-24-16-17-37;11,0;41,0;100;2,0;3,0;1,0;0,0;row;0,0;True;True;False;0,532999992371;False;0,935000181198
ACR1994m;game;2017-04-24-16-17-37;11,0;42,0;100;1,0;3,0;0,0;2,0;row;0,0;False;False;True;0,266999959946;False;1,23500013351
ACR1994m;game;2017-04-24-16-17-37;11,0;43,0;100;3,0;0,0;1,0;2,0;column;1,0;False;False;False;0,134000062943;True;1,49900007248
ACR1994m;game;2017-04-24-16-17-37;11,0;44,0;100;1,0;0,0;3,0;2,0;row;1,0;False;True;True;0,567000150681;False;1,15799999237
ACR1994m;game;2017-04-24-16-17-37;11,0;45,0;100;3,0;1,0;0,0;2,0;column;1,0;False;True;False;0,466000080109;True;1,45900011063
ACR1994m;game;2017-04-24-16-17-37;11,0;46,0;100;1,0;2,0;3,0;0,0;column;0,0;True;False;True;0,766000032425;True;0,759999990463
ACR1994m;game;2017-04-24-16-17-37;11,0;47,0;100;2,0;0,0;1,0;3,0;column;0,0;True;True;False;0,567000150681;False;0,56200003624
ACR1994m;game;2017-04-24-16-17-37;11,0;48,0;100;3,0;2,0;0,0;1,0;column;0,0;False;False;True;0,567000150681;False;1,00599980354
ACR1994m;game;2017-04-24-16-17-37;12,0;1,0;1000;2,0;1,0;0,0;3,0;column;1,0;True;True;False;0,5;False;0,928999900818
ACR1994m;game;2017-04-24-16-17-37;12,0;2,0;1000;1,0;3,0;2,0;0,0;row;1,0;False;True;False;0,567000150681;True;0,665000200272
ACR1994m;game;2017-04-24-16-17-37;12,0;3,0;1000;2,0;1,0;0,0;3,0;column;1,0;False;False;False;0,599999904633;True;0,524999856949
ACR1994m;game;2017-04-24-16-17-37;12,0;4,0;1000;2,0;3,0;0,0;1,0;row;1,0;False;True;False;0,566999912262;True;0,901000022888
ACR1994m;game;2017-04-24-16-17-37;12,0;5,0;1000;1,0;0,0;2,0;3,0;column;0,0;True;False;False;0,665999889374;False;0,667999982834
ACR1994m;game;2017-04-24-16-17-37;12,0;6,0;1000;1,0;3,0;2,0;0,0;column;1,0;True;True;True;0,5;True;0,993000030518
ACR1994m;game;2017-04-24-16-17-37;12,0;7,0;1000;2,0;3,0;0,0;1,0;row;0,0;False;False;False;0,532999992371;True;0,938999891281
ACR1994m;game;2017-04-24-16-17-37;12,0;8,0;1000;3,0;1,0;0,0;2,0;row;1,0;False;False;False;0,565999984741;True;0,632999897003
ACR1994m;game;2017-04-24-16-17-37;12,0;9,0;1000;0,0;1,0;2,0;3,0;row;0,0;True;True;False;0,565999984741;False;1,0680000782
ACR1994m;game;2017-04-24-16-17-37;12,0;10,0;1000;0,0;2,0;3,0;1,0;column;1,0;True;False;True;0,467000007629;True;0,700000047684
ACR1994m;game;2017-04-24-16-17-37;12,0;11,0;1000;0,0;3,0;1,0;2,0;row;1,0;True;True;True;0,432999849319;True;0,790999889374
ACR1994m;game;2017-04-24-16-17-37;12,0;12,0;1000;0,0;2,0;3,0;1,0;column;1,0;False;True;False;0,631999969482;True;0,924999952316
ACR1994m;game;2017-04-24-16-17-37;12,0;13,0;1000;1,0;0,0;3,0;2,0;column;0,0;True;False;True;0,555999994278;True;0,928999900818
ACR1994m;game;2017-04-24-16-17-37;12,0;14,0;1000;3,0;1,0;0,0;2,0;row;1,0;True;True;True;0,433000087738;True;1,42899990082
ACR1994m;game;2017-04-24-16-17-37;12,0;15,0;1000;0,0;1,0;3,0;2,0;column;0,0;True;False;False;0,565999984741;False;1,46999979019
ACR1994m;game;2017-04-24-16-17-37;12,0;16,0;1000;3,0;0,0;2,0;1,0;column;0,0;False;False;False;0,665999889374;True;0,730000019073
ACR1994m;game;2017-04-24-16-17-37;12,0;17,0;1000;2,0;1,0;3,0;0,0;column;0,0;True;True;False;0,599999904633;False;0,700999975204
ACR1994m;game;2017-04-24-16-17-37;12,0;18,0;1000;0,0;3,0;2,0;1,0;row;0,0;False;False;True;0,233000040054;False;0,732000112534
ACR1994m;game;2017-04-24-16-17-37;12,0;19,0;1000;3,0;1,0;2,0;0,0;row;1,0;True;False;False;0,532999992371;False;1,43099999428
ACR1994m;game;2017-04-24-16-17-37;12,0;20,0;1000;1,0;3,0;0,0;2,0;column;0,0;False;False;False;0,5;True;1,22299981117
ACR1994m;game;2017-04-24-16-17-37;12,0;21,0;1000;3,0;2,0;1,0;0,0;column;1,0;True;False;True;0,5;True;1,29699993134
ACR1994m;game;2017-04-24-16-17-37;12,0;22,0;1000;2,0;0,0;3,0;1,0;row;0,0;True;True;False;0,532999992371;False;0,934000015259
ACR1994m;game;2017-04-24-16-17-37;12,0;23,0;1000;3,0;1,0;2,0;0,0;column;1,0;False;False;True;0,532999992371;False;1,26200008392
ACR1994m;game;2017-04-24-16-17-37;12,0;24,0;1000;3,0;1,0;0,0;2,0;row;0,0;True;True;False;0,466000080109;False;1,29299998283
ACR1994m;game;2017-04-24-16-17-37;12,0;25,0;1000;2,0;0,0;3,0;1,0;column;1,0;True;True;True;0,333999872208;True;0,638000011444
ACR1994m;game;2017-04-24-16-17-37;12,0;26,0;1000;0,0;2,0;1,0;3,0;row;0,0;True;False;False;0,433000087738;False;0,836999893188
ACR1994m;game;2017-04-24-16-17-37;12,0;27,0;1000;1,0;2,0;0,0;3,0;column;0,0;False;True;False;0,466999769211;True;1,02500009537
ACR1994m;game;2017-04-24-16-17-37;12,0;28,0;1000;0,0;1,0;3,0;2,0;column;1,0;False;False;True;3,0;False;0,664999961853
ACR1994m;game;2017-04-24-16-17-37;12,0;29,0;1000;2,0;3,0;0,0;1,0;row;0,0;True;True;False;0,466000080109;False;1,4960000515
ACR1994m;game;2017-04-24-16-17-37;12,0;30,0;1000;1,0;0,0;3,0;2,0;column;0,0;False;True;True;0,466000080109;False;0,930999994278
ACR1994m;game;2017-04-24-16-17-37;12,0;31,0;1000;1,0;2,0;3,0;0,0;column;1,0;True;False;False;0,499000072479;False;0,898000001907
ACR1994m;game;2017-04-24-16-17-37;12,0;32,0;1000;3,0;0,0;2,0;1,0;row;0,0;True;True;True;0,233999967575;True;0,666000127792
ACR1994m;game;2017-04-24-16-17-37;12,0;33,0;1000;3,0;2,0;1,0;0,0;column;0,0;False;False;True;0,699999809265;False;1,15400004387
ACR1994m;game;2017-04-24-16-17-37;12,0;34,0;1000;0,0;2,0;3,0;1,0;row;0,0;False;True;False;0,432999849319;True;0,598999977112
ACR1994m;game;2017-04-24-16-17-37;12,0;35,0;1000;3,0;0,0;1,0;2,0;column;1,0;False;True;True;0,0659999847412;False;0,655999898911
ACR1994m;game;2017-04-24-16-17-37;12,0;36,0;1000;0,0;2,0;3,0;1,0;row;1,0;True;True;True;0,96599984169;True;1,30599999428
ACR1994m;game;2017-04-24-16-17-37;12,0;37,0;1000;0,0;2,0;1,0;3,0;column;0,0;True;True;True;0,632999897003;True;1,29600000381
ACR1994m;game;2017-04-24-16-17-37;12,0;38,0;1000;3,0;2,0;1,0;0,0;column;0,0;True;True;True;0,5;True;1,12800002098
ACR1994m;game;2017-04-24-16-17-37;12,0;39,0;1000;3,0;2,0;0,0;1,0;column;0,0;True;False;True;0,399999856949;True;0,97000002861
ACR1994m;game;2017-04-24-16-17-37;12,0;40,0;1000;0,0;2,0;1,0;3,0;column;1,0;True;False;False;0,433000087738;False;1,29999995232
ACR1994m;game;2017-04-24-16-17-37;12,0;41,0;1000;0,0;2,0;1,0;3,0;column;0,0;False;False;True;0,832999944687;False;0,755000114441
ACR1994m;game;2017-04-24-16-17-37;12,0;42,0;1000;0,0;3,0;2,0;1,0;column;1,0;False;True;False;1,59899997711;True;1,39700007439
ACR1994m;game;2017-04-24-16-17-37;12,0;43,0;1000;1,0;3,0;0,0;2,0;row;0,0;False;True;False;0,766000032425;True;1,43400001526
ACR1994m;game;2017-04-24-16-17-37;12,0;44,0;1000;2,0;0,0;1,0;3,0;column;0,0;True;False;True;0,566999912262;True;1,06900000572
ACR1994m;game;2017-04-24-16-17-37;12,0;45,0;1000;0,0;1,0;2,0;3,0;column;1,0;False;True;False;0,700000047684;True;0,536999940872
ACR1994m;game;2017-04-24-16-17-37;12,0;46,0;1000;1,0;3,0;0,0;2,0;row;0,0;True;True;True;0,733000040054;True;1,15700006485
ACR1994m;game;2017-04-24-16-17-37;12,0;47,0;1000;2,0;0,0;3,0;1,0;column;1,0;False;True;False;0,900000095367;True;1,27399992943
ACR1994m;game;2017-04-24-16-17-37;12,0;48,0;1000;1,0;3,0;0,0;2,0;column;1,0;False;True;False;0,766000032425;True;1,46099996567
