Observer;Condition;SessionID;Block;Trial;COA;Color0;Color1;Color2;Color3;Target;Which;Match;FlipComplimentary;Response;RT;Correct;OnsetDelay
AKB1996w;experiment;2017-02-01-10-27-01;1,0;1,0;-100;2,0;3,0;0,0;1,0;column;0,0;True;False;False;3,35000014305;False;0,52999997139
AKB1996w;experiment;2017-02-01-10-27-01;1,0;2,0;-100;3,0;2,0;1,0;0,0;column;1,0;False;True;False;2,38100004196;True;1,46800017357
AKB1996w;experiment;2017-02-01-10-27-01;1,0;3,0;-100;0,0;3,0;1,0;2,0;row;0,0;True;True;True;1,66700005531;True;1,23199987411
AKB1996w;experiment;2017-02-01-10-27-01;1,0;4,0;-100;3,0;2,0;0,0;1,0;column;0,0;True;True;False;1,65100002289;False;0,601999998093
AKB1996w;experiment;2017-02-01-10-27-01;1,0;5,0;-100;0,0;3,0;2,0;1,0;column;1,0;False;True;False;2,01499986649;True;1,15999984741
AKB1996w;experiment;2017-02-01-10-27-01;1,0;6,0;-100;3,0;0,0;2,0;1,0;column;0,0;True;True;True;1,78400015831;True;0,674000024796
AKB1996w;experiment;2017-02-01-10-27-01;1,0;7,0;-100;0,0;3,0;2,0;1,0;row;1,0;True;False;True;2,24699997902;True;0,763000011444
AKB1996w;experiment;2017-02-01-10-27-01;1,0;8,0;-100;1,0;0,0;2,0;3,0;row;0,0;True;True;True;1,71399998665;True;1,06999993324
AKB1996w;experiment;2017-02-01-10-27-01;1,0;9,0;-100;1,0;2,0;3,0;0,0;column;1,0;True;True;True;1,45000004768;True;1,17300009727
AKB1996w;experiment;2017-02-01-10-27-01;1,0;10,0;-100;1,0;3,0;0,0;2,0;row;0,0;True;True;True;1,21600008011;True;0,828999996185
AKB1996w;experiment;2017-02-01-10-27-01;1,0;11,0;-100;2,0;3,0;1,0;0,0;row;1,0;False;True;False;1,1819999218;True;0,667000055313
AKB1996w;experiment;2017-02-01-10-27-01;1,0;12,0;-100;0,0;2,0;3,0;1,0;column;0,0;False;True;True;1,78399991989;False;1,30500006676
AKB1996w;experiment;2017-02-01-10-27-01;1,0;13,0;-100;1,0;3,0;0,0;2,0;row;0,0;False;False;False;1,54799985886;True;0,801000118256
AKB1996w;experiment;2017-02-01-10-27-01;1,0;14,0;-100;2,0;1,0;0,0;3,0;column;0,0;True;True;True;1,21600008011;True;1,10100007057
AKB1996w;experiment;2017-02-01-10-27-01;1,0;15,0;-100;2,0;0,0;3,0;1,0;row;1,0;True;False;True;2,18400001526;True;0,801000118256
AKB1996w;experiment;2017-02-01-10-27-01;1,0;16,0;-100;0,0;3,0;2,0;1,0;column;1,0;True;True;True;1,78399991989;True;0,735000133514
AKB1996w;experiment;2017-02-01-10-27-01;1,0;17,0;-100;2,0;3,0;1,0;0,0;column;1,0;True;True;True;1,64800000191;True;1,25999999046
AKB1996w;experiment;2017-02-01-10-27-01;1,0;18,0;-100;1,0;3,0;2,0;0,0;row;0,0;False;False;False;1,55099987984;True;1,32799983025
AKB1996w;experiment;2017-02-01-10-27-01;1,0;19,0;-100;2,0;3,0;0,0;1,0;column;1,0;True;True;True;1,34999990463;True;0,606999874115
AKB1996w;experiment;2017-02-01-10-27-01;1,0;20,0;-100;1,0;2,0;3,0;0,0;column;0,0;False;False;False;1,34900021553;True;1,36199998856
AKB1996w;experiment;2017-02-01-10-27-01;1,0;21,0;-100;1,0;0,0;3,0;2,0;row;0,0;False;True;False;1,54800009727;True;0,59500002861
AKB1996w;experiment;2017-02-01-10-27-01;1,0;22,0;-100;1,0;0,0;2,0;3,0;row;1,0;True;True;True;1,34800004959;True;0,598999977112
AKB1996w;experiment;2017-02-01-10-27-01;1,0;23,0;-100;3,0;2,0;0,0;1,0;row;0,0;False;False;False;1,75;True;1,42500019073
AKB1996w;experiment;2017-02-01-10-27-01;1,0;24,0;-100;2,0;3,0;0,0;1,0;column;1,0;False;False;False;1,91599988937;True;1,42999982834
AKB1996w;experiment;2017-02-01-10-27-01;1,0;25,0;-100;3,0;2,0;1,0;0,0;row;1,0;True;True;False;0,913000106812;False;1,09500002861
AKB1996w;experiment;2017-02-01-10-27-01;1,0;26,0;-100;1,0;0,0;3,0;2,0;column;1,0;True;False;True;1,51700019836;True;0,540999889374
AKB1996w;experiment;2017-02-01-10-27-01;1,0;27,0;-100;3,0;2,0;1,0;0,0;row;0,0;True;True;True;2,54999995232;True;0,630000114441
AKB1996w;experiment;2017-02-01-10-27-01;1,0;28,0;-100;1,0;2,0;0,0;3,0;column;0,0;False;False;False;1,5490000248;True;0,898000001907
AKB1996w;experiment;2017-02-01-10-27-01;1,0;29,0;-100;2,0;3,0;1,0;0,0;column;0,0;False;True;False;1,5490000248;True;0,968999862671
AKB1996w;experiment;2017-02-01-10-27-01;1,0;30,0;-100;3,0;0,0;1,0;2,0;row;0,0;True;False;True;1,4470000267;True;1,43499994278
AKB1996w;experiment;2017-02-01-10-27-01;1,0;31,0;-100;2,0;3,0;1,0;0,0;row;0,0;False;True;True;1,9240000248;False;1,10400009155
AKB1996w;experiment;2017-02-01-10-27-01;1,0;32,0;-100;1,0;2,0;3,0;0,0;row;0,0;False;True;False;2,04999995232;True;1,46600008011
AKB1996w;experiment;2017-02-01-10-27-01;1,0;33,0;-100;2,0;0,0;3,0;1,0;row;0,0;True;False;True;1,64899992943;True;0,600999832153
AKB1996w;experiment;2017-02-01-10-27-01;1,0;34,0;-100;0,0;1,0;2,0;3,0;row;1,0;True;False;True;1,72299981117;True;1,26800012589
AKB1996w;experiment;2017-02-01-10-27-01;1,0;35,0;-100;0,0;3,0;1,0;2,0;column;1,0;True;False;True;1,14899992943;True;1,49199986458
AKB1996w;experiment;2017-02-01-10-27-01;1,0;36,0;-100;1,0;0,0;2,0;3,0;column;1,0;False;True;False;1,24599981308;True;1,13000011444
AKB1996w;experiment;2017-02-01-10-27-01;1,0;37,0;-100;2,0;0,0;1,0;3,0;column;1,0;True;False;True;1,48199987411;True;0,660999774933
AKB1996w;experiment;2017-02-01-10-27-01;1,0;38,0;-100;3,0;1,0;2,0;0,0;row;0,0;True;True;True;1,7460000515;True;0,802999973297
AKB1996w;experiment;2017-02-01-10-27-01;1,0;39,0;-100;1,0;3,0;0,0;2,0;row;1,0;False;False;False;1,34800004959;True;1,19899988174
AKB1996w;experiment;2017-02-01-10-27-01;1,0;40,0;-100;3,0;2,0;0,0;1,0;column;1,0;False;False;False;1,68299984932;True;1,02900004387
AKB1996w;experiment;2017-02-01-10-27-01;1,0;41,0;-100;0,0;3,0;2,0;1,0;row;0,0;False;True;False;1,18400001526;True;0,539999961853
AKB1996w;experiment;2017-02-01-10-27-01;1,0;42,0;-100;2,0;0,0;3,0;1,0;row;1,0;False;True;False;1,48299980164;True;1,46200013161
AKB1996w;experiment;2017-02-01-10-27-01;1,0;43,0;-100;0,0;1,0;3,0;2,0;column;0,0;True;True;True;1,46200013161;True;1,33400011063
AKB1996w;experiment;2017-02-01-10-27-01;1,0;44,0;-100;0,0;2,0;3,0;1,0;row;1,0;True;False;True;1,74799990654;True;1,07100009918
AKB1996w;experiment;2017-02-01-10-27-01;1,0;45,0;-100;0,0;3,0;2,0;1,0;row;1,0;False;False;False;1,58100008965;True;0,894999980927
AKB1996w;experiment;2017-02-01-10-27-01;1,0;46,0;-100;3,0;1,0;0,0;2,0;column;1,0;True;True;True;1,25;True;1,492000103
AKB1996w;experiment;2017-02-01-10-27-01;1,0;47,0;-100;0,0;3,0;2,0;1,0;column;0,0;False;True;False;1,47799992561;True;0,868999958038
AKB1996w;experiment;2017-02-01-10-27-01;1,0;48,0;-100;0,0;2,0;3,0;1,0;column;1,0;True;True;True;1,01600003242;True;1,03099989891
AKB1996w;experiment;2017-02-01-10-27-01;2,0;1,0;100;2,0;0,0;3,0;1,0;column;0,0;True;False;False;1,33400011063;False;1,20300006866
AKB1996w;experiment;2017-02-01-10-27-01;2,0;2,0;100;3,0;0,0;2,0;1,0;column;1,0;False;True;False;1,16700005531;True;0,993000030518
AKB1996w;experiment;2017-02-01-10-27-01;2,0;3,0;100;2,0;3,0;0,0;1,0;column;1,0;True;True;True;1,46700000763;True;0,634999990463
AKB1996w;experiment;2017-02-01-10-27-01;2,0;4,0;100;3,0;2,0;0,0;1,0;row;0,0;False;False;False;2,23199987411;True;1,09999990463
AKB1996w;experiment;2017-02-01-10-27-01;2,0;5,0;100;0,0;3,0;2,0;1,0;row;0,0;False;True;False;1,13300013542;True;0,526000022888
AKB1996w;experiment;2017-02-01-10-27-01;2,0;6,0;100;0,0;3,0;1,0;2,0;column;1,0;False;True;False;1,59899997711;True;0,738000154495
AKB1996w;experiment;2017-02-01-10-27-01;2,0;7,0;100;2,0;3,0;0,0;1,0;row;1,0;True;True;True;1,0;True;1,12800002098
AKB1996w;experiment;2017-02-01-10-27-01;2,0;8,0;100;0,0;1,0;2,0;3,0;row;0,0;False;True;False;0,900000095367;True;1,39499998093
AKB1996w;experiment;2017-02-01-10-27-01;2,0;9,0;100;1,0;3,0;2,0;0,0;column;0,0;True;False;True;2,0;True;0,571999788284
AKB1996w;experiment;2017-02-01-10-27-01;2,0;10,0;100;2,0;0,0;3,0;1,0;column;1,0;True;False;True;1,40000009537;True;0,766000032425
AKB1996w;experiment;2017-02-01-10-27-01;2,0;11,0;100;3,0;1,0;0,0;2,0;row;0,0;True;True;True;1,36600017548;True;0,861000061035
AKB1996w;experiment;2017-02-01-10-27-01;2,0;12,0;100;3,0;2,0;0,0;1,0;row;1,0;True;True;True;2,22999978065;True;1,0640001297
AKB1996w;experiment;2017-02-01-10-27-01;2,0;13,0;100;1,0;3,0;0,0;2,0;row;1,0;True;True;True;1,5640001297;True;1,49500012398
AKB1996w;experiment;2017-02-01-10-27-01;2,0;14,0;100;3,0;0,0;2,0;1,0;column;1,0;True;False;True;0,901000022888;True;1,13000011444
AKB1996w;experiment;2017-02-01-10-27-01;2,0;15,0;100;0,0;3,0;1,0;2,0;column;0,0;False;True;False;1,59800004959;True;1,10100007057
AKB1996w;experiment;2017-02-01-10-27-01;2,0;16,0;100;1,0;0,0;2,0;3,0;row;1,0;True;True;True;0,898999929428;True;0,763000011444
AKB1996w;experiment;2017-02-01-10-27-01;2,0;17,0;100;3,0;1,0;2,0;0,0;row;1,0;False;True;False;1,13199996948;True;1,47000002861
AKB1996w;experiment;2017-02-01-10-27-01;2,0;18,0;100;1,0;2,0;3,0;0,0;row;0,0;False;True;False;1,66599988937;True;1,06900000572
AKB1996w;experiment;2017-02-01-10-27-01;2,0;19,0;100;0,0;1,0;3,0;2,0;row;1,0;True;False;True;1,2990000248;True;1,33200001717
AKB1996w;experiment;2017-02-01-10-27-01;2,0;20,0;100;2,0;0,0;3,0;1,0;row;0,0;False;False;False;1,10000014305;True;1,0680000782
AKB1996w;experiment;2017-02-01-10-27-01;2,0;21,0;100;2,0;3,0;1,0;0,0;row;1,0;True;True;True;1,16600012779;True;1,06299996376
AKB1996w;experiment;2017-02-01-10-27-01;2,0;22,0;100;2,0;3,0;0,0;1,0;row;1,0;False;True;False;1,0;True;1,36899995804
AKB1996w;experiment;2017-02-01-10-27-01;2,0;23,0;100;3,0;2,0;1,0;0,0;column;0,0;False;False;False;1,16700005531;True;1,16799998283
AKB1996w;experiment;2017-02-01-10-27-01;2,0;24,0;100;3,0;1,0;0,0;2,0;row;1,0;True;True;False;1,00100016594;False;1,17000007629
AKB1996w;experiment;2017-02-01-10-27-01;2,0;25,0;100;2,0;1,0;3,0;0,0;row;1,0;False;True;True;1,5;False;1,16900014877
AKB1996w;experiment;2017-02-01-10-27-01;2,0;26,0;100;3,0;0,0;2,0;1,0;row;1,0;False;False;False;1,83299994469;True;1,43299984932
AKB1996w;experiment;2017-02-01-10-27-01;2,0;27,0;100;2,0;3,0;0,0;1,0;column;1,0;False;True;False;1,89899992943;True;1,1970000267
AKB1996w;experiment;2017-02-01-10-27-01;2,0;28,0;100;2,0;0,0;3,0;1,0;row;1,0;False;False;True;2,56500005722;False;1,32500004768
AKB1996w;experiment;2017-02-01-10-27-01;2,0;29,0;100;0,0;2,0;1,0;3,0;column;0,0;False;True;False;1,90000009537;True;0,800999879837
AKB1996w;experiment;2017-02-01-10-27-01;2,0;30,0;100;2,0;0,0;1,0;3,0;column;0,0;False;True;False;1,63100004196;True;1,42800021172
AKB1996w;experiment;2017-02-01-10-27-01;2,0;31,0;100;3,0;2,0;1,0;0,0;row;0,0;True;True;False;2,66500020027;False;1,19799995422
AKB1996w;experiment;2017-02-01-10-27-01;2,0;32,0;100;1,0;0,0;2,0;3,0;row;0,0;True;False;True;2,62900018692;True;0,895000219345
AKB1996w;experiment;2017-02-01-10-27-01;2,0;33,0;100;0,0;1,0;3,0;2,0;row;1,0;False;False;False;2,46599984169;True;1,43700003624
AKB1996w;experiment;2017-02-01-10-27-01;2,0;34,0;100;1,0;0,0;3,0;2,0;row;1,0;False;False;False;1,43300008774;True;0,861999988556
AKB1996w;experiment;2017-02-01-10-27-01;2,0;35,0;100;2,0;1,0;0,0;3,0;column;1,0;False;True;True;1,46499991417;False;0,638000011444
AKB1996w;experiment;2017-02-01-10-27-01;2,0;36,0;100;1,0;0,0;2,0;3,0;column;0,0;False;False;False;2,56599998474;True;1,2990000248
AKB1996w;experiment;2017-02-01-10-27-01;2,0;37,0;100;1,0;0,0;3,0;2,0;column;1,0;False;False;False;2,03299999237;True;0,601000070572
AKB1996w;experiment;2017-02-01-10-27-01;2,0;38,0;100;0,0;1,0;3,0;2,0;column;1,0;False;True;True;1,79799985886;False;1,22600007057
AKB1996w;experiment;2017-02-01-10-27-01;2,0;39,0;100;0,0;2,0;1,0;3,0;column;1,0;False;True;False;1,26600003242;True;0,704999923706
AKB1996w;experiment;2017-02-01-10-27-01;2,0;40,0;100;3,0;2,0;1,0;0,0;column;1,0;True;True;True;1,63400006294;True;0,736999988556
AKB1996w;experiment;2017-02-01-10-27-01;2,0;41,0;100;2,0;0,0;1,0;3,0;column;1,0;False;True;False;1,43299984932;True;1,20199990273
AKB1996w;experiment;2017-02-01-10-27-01;2,0;42,0;100;3,0;1,0;0,0;2,0;column;1,0;True;True;True;1,56699991226;True;1,15900015831
AKB1996w;experiment;2017-02-01-10-27-01;2,0;43,0;100;0,0;3,0;1,0;2,0;column;1,0;True;True;True;1,36500000954;True;0,900000095367
AKB1996w;experiment;2017-02-01-10-27-01;2,0;44,0;100;0,0;2,0;3,0;1,0;column;0,0;False;False;False;2,26800012589;True;0,792999982834
AKB1996w;experiment;2017-02-01-10-27-01;2,0;45,0;100;3,0;1,0;0,0;2,0;column;0,0;True;True;True;1,59999990463;True;0,769000053406
AKB1996w;experiment;2017-02-01-10-27-01;2,0;46,0;100;1,0;3,0;0,0;2,0;column;0,0;True;False;False;1,13400006294;False;0,866999864578
AKB1996w;experiment;2017-02-01-10-27-01;2,0;47,0;100;2,0;1,0;0,0;3,0;column;0,0;False;False;False;3,09700012207;True;0,895999908447
AKB1996w;experiment;2017-02-01-10-27-01;2,0;48,0;100;2,0;3,0;1,0;0,0;row;1,0;False;True;False;2,16599988937;True;1,09400010109
AKB1996w;experiment;2017-02-01-10-27-01;3,0;1,0;1000;2,0;3,0;1,0;0,0;row;1,0;False;False;False;1,46700000763;True;1,26399993896
AKB1996w;experiment;2017-02-01-10-27-01;3,0;2,0;1000;1,0;0,0;2,0;3,0;column;0,0;False;True;False;0,866999864578;True;0,693000078201
AKB1996w;experiment;2017-02-01-10-27-01;3,0;3,0;1000;2,0;3,0;1,0;0,0;row;1,0;True;True;True;1,33399987221;True;1,22900009155
AKB1996w;experiment;2017-02-01-10-27-01;3,0;4,0;1000;3,0;2,0;1,0;0,0;row;0,0;True;False;True;1,46699976921;True;0,667000055313
AKB1996w;experiment;2017-02-01-10-27-01;3,0;5,0;1000;2,0;0,0;1,0;3,0;column;1,0;True;True;True;1,69999980927;True;0,733999967575
AKB1996w;experiment;2017-02-01-10-27-01;3,0;6,0;1000;1,0;2,0;3,0;0,0;column;1,0;False;False;True;3,73300004005;False;1,36899995804
AKB1996w;experiment;2017-02-01-10-27-01;3,0;7,0;1000;3,0;0,0;2,0;1,0;row;0,0;True;False;True;1,56699991226;True;0,958999872208
AKB1996w;experiment;2017-02-01-10-27-01;3,0;8,0;1000;3,0;2,0;0,0;1,0;column;1,0;True;True;True;1,56699991226;True;0,925999879837
AKB1996w;experiment;2017-02-01-10-27-01;3,0;9,0;1000;1,0;3,0;2,0;0,0;row;0,0;False;False;False;2,33299994469;True;1,46000003815
AKB1996w;experiment;2017-02-01-10-27-01;3,0;10,0;1000;3,0;2,0;1,0;0,0;column;1,0;False;True;True;2,56699991226;False;1,30200004578
AKB1996w;experiment;2017-02-01-10-27-01;3,0;11,0;1000;2,0;0,0;1,0;3,0;column;0,0;True;False;True;1,66400003433;True;1,26600003242
AKB1996w;experiment;2017-02-01-10-27-01;3,0;12,0;1000;2,0;0,0;1,0;3,0;column;0,0;False;False;False;1,0;True;0,569000005722
AKB1996w;experiment;2017-02-01-10-27-01;3,0;13,0;1000;3,0;1,0;0,0;2,0;row;1,0;False;False;False;1,13099980354;True;0,695999860764
AKB1996w;experiment;2017-02-01-10-27-01;3,0;14,0;1000;1,0;0,0;3,0;2,0;row;1,0;False;False;True;1,36600017548;False;0,901999950409
AKB1996w;experiment;2017-02-01-10-27-01;3,0;15,0;1000;1,0;0,0;2,0;3,0;row;1,0;True;False;True;1,96600008011;True;0,801000118256
AKB1996w;experiment;2017-02-01-10-27-01;3,0;16,0;1000;0,0;3,0;2,0;1,0;column;1,0;True;False;True;1,40100002289;True;1,33399987221
AKB1996w;experiment;2017-02-01-10-27-01;3,0;17,0;1000;1,0;2,0;0,0;3,0;row;0,0;False;False;False;1,53200006485;True;0,569999933243
AKB1996w;experiment;2017-02-01-10-27-01;3,0;18,0;1000;3,0;0,0;2,0;1,0;row;1,0;True;False;False;1,70000004768;False;1,32500004768
AKB1996w;experiment;2017-02-01-10-27-01;3,0;19,0;1000;0,0;1,0;2,0;3,0;column;0,0;False;False;True;2,69799995422;False;1,06699991226
AKB1996w;experiment;2017-02-01-10-27-01;3,0;20,0;1000;3,0;2,0;0,0;1,0;row;1,0;False;True;False;1,86500000954;True;1,13300013542
AKB1996w;experiment;2017-02-01-10-27-01;3,0;21,0;1000;1,0;0,0;2,0;3,0;row;1,0;False;True;False;1,43299984932;True;1,50099992752
AKB1996w;experiment;2017-02-01-10-27-01;3,0;22,0;1000;0,0;2,0;3,0;1,0;row;1,0;True;False;False;1,26699995995;False;0,962000131607
AKB1996w;experiment;2017-02-01-10-27-01;3,0;23,0;1000;2,0;0,0;3,0;1,0;row;1,0;True;False;True;2,26600003242;True;1,46899986267
AKB1996w;experiment;2017-02-01-10-27-01;3,0;24,0;1000;3,0;0,0;2,0;1,0;column;0,0;True;False;True;2,16599988937;True;0,535000085831
AKB1996w;experiment;2017-02-01-10-27-01;3,0;25,0;1000;1,0;3,0;2,0;0,0;column;1,0;True;False;False;1,43400001526;False;0,825000047684
AKB1996w;experiment;2017-02-01-10-27-01;3,0;26,0;1000;1,0;0,0;3,0;2,0;column;0,0;False;True;False;3,66400003433;True;1,05999994278
AKB1996w;experiment;2017-02-01-10-27-01;3,0;27,0;1000;1,0;2,0;3,0;0,0;row;1,0;False;False;False;1,69900012016;True;1,26600003242
AKB1996w;experiment;2017-02-01-10-27-01;3,0;28,0;1000;2,0;1,0;3,0;0,0;column;0,0;False;True;False;1,83400011063;True;0,654000043869
AKB1996w;experiment;2017-02-01-10-27-01;3,0;29,0;1000;1,0;3,0;2,0;0,0;column;0,0;False;True;False;2,13300013542;True;0,733999967575
AKB1996w;experiment;2017-02-01-10-27-01;3,0;30,0;1000;2,0;1,0;3,0;0,0;row;0,0;False;False;False;1,53200006485;True;1,23599982262
AKB1996w;experiment;2017-02-01-10-27-01;3,0;31,0;1000;3,0;2,0;1,0;0,0;column;0,0;True;False;True;1,29999995232;True;0,634000062943
AKB1996w;experiment;2017-02-01-10-27-01;3,0;32,0;1000;3,0;0,0;2,0;1,0;column;1,0;False;True;False;1,16600012779;True;1,33500003815
AKB1996w;experiment;2017-02-01-10-27-01;3,0;33,0;1000;2,0;3,0;1,0;0,0;column;0,0;True;True;False;2,86599993706;False;0,697999954224
AKB1996w;experiment;2017-02-01-10-27-01;3,0;34,0;1000;2,0;1,0;3,0;0,0;column;1,0;False;True;False;1,53199982643;True;1,10100007057
AKB1996w;experiment;2017-02-01-10-27-01;3,0;35,0;1000;0,0;2,0;1,0;3,0;column;1,0;False;True;False;1,06700015068;True;0,767000198364
AKB1996w;experiment;2017-02-01-10-27-01;3,0;36,0;1000;1,0;2,0;3,0;0,0;row;1,0;True;True;False;1,99699997902;False;0,769999980927
AKB1996w;experiment;2017-02-01-10-27-01;3,0;37,0;1000;3,0;2,0;0,0;1,0;column;0,0;True;True;True;1,5;True;0,668999910355
AKB1996w;experiment;2017-02-01-10-27-01;3,0;38,0;1000;1,0;3,0;2,0;0,0;column;1,0;False;True;False;1,36599993706;True;1,13400006294
AKB1996w;experiment;2017-02-01-10-27-01;3,0;39,0;1000;2,0;1,0;0,0;3,0;row;0,0;False;True;False;0,766999959946;True;1,23699998856
AKB1996w;experiment;2017-02-01-10-27-01;3,0;40,0;1000;2,0;0,0;3,0;1,0;column;1,0;False;True;False;1,93300008774;True;0,696000099182
AKB1996w;experiment;2017-02-01-10-27-01;3,0;41,0;1000;3,0;2,0;1,0;0,0;row;0,0;False;False;False;1,16599988937;True;0,664000034332
AKB1996w;experiment;2017-02-01-10-27-01;3,0;42,0;1000;2,0;0,0;3,0;1,0;column;0,0;False;False;False;1,79999995232;True;1,39899992943
AKB1996w;experiment;2017-02-01-10-27-01;3,0;43,0;1000;0,0;2,0;1,0;3,0;row;0,0;True;False;True;2,03399991989;True;0,733999967575
AKB1996w;experiment;2017-02-01-10-27-01;3,0;44,0;1000;3,0;2,0;0,0;1,0;row;0,0;False;False;False;1,2349998951;True;0,733999967575
AKB1996w;experiment;2017-02-01-10-27-01;3,0;45,0;1000;1,0;2,0;0,0;3,0;row;0,0;True;True;False;0,966000080109;False;1,40499997139
AKB1996w;experiment;2017-02-01-10-27-01;3,0;46,0;1000;2,0;3,0;0,0;1,0;row;1,0;True;False;True;2,16600012779;True;0,799000024796
AKB1996w;experiment;2017-02-01-10-27-01;3,0;47,0;1000;0,0;3,0;1,0;2,0;column;0,0;False;False;False;2,43400001526;True;0,895999908447
AKB1996w;experiment;2017-02-01-10-27-01;3,0;48,0;1000;0,0;2,0;3,0;1,0;column;1,0;True;False;True;1,66500020027;True;0,591000080109
AKB1996w;experiment;2017-02-01-10-27-01;4,0;1,0;100;3,0;0,0;1,0;2,0;row;1,0;True;False;False;1,16599988937;False;1,02999997139
AKB1996w;experiment;2017-02-01-10-27-01;4,0;2,0;100;2,0;1,0;3,0;0,0;column;0,0;True;False;True;1,43499994278;True;1,09399986267
AKB1996w;experiment;2017-02-01-10-27-01;4,0;3,0;100;3,0;0,0;2,0;1,0;row;0,0;False;False;False;1,63100004196;True;0,629999876022
AKB1996w;experiment;2017-02-01-10-27-01;4,0;4,0;100;0,0;3,0;2,0;1,0;row;0,0;True;False;True;1,46500015259;True;1,42899990082
AKB1996w;experiment;2017-02-01-10-27-01;4,0;5,0;100;0,0;2,0;3,0;1,0;column;1,0;True;False;True;1,7650001049;True;1,19600009918
AKB1996w;experiment;2017-02-01-10-27-01;4,0;6,0;100;2,0;1,0;0,0;3,0;row;0,0;True;False;True;1,16599988937;True;0,569999933243
AKB1996w;experiment;2017-02-01-10-27-01;4,0;7,0;100;3,0;2,0;1,0;0,0;column;1,0;False;True;False;1,20000004768;True;0,803999900818
AKB1996w;experiment;2017-02-01-10-27-01;4,0;8,0;100;1,0;3,0;0,0;2,0;row;0,0;True;False;True;1,2990000248;True;1,43700003624
AKB1996w;experiment;2017-02-01-10-27-01;4,0;9,0;100;2,0;3,0;0,0;1,0;column;0,0;True;True;False;1,16599988937;False;0,536000013351
AKB1996w;experiment;2017-02-01-10-27-01;4,0;10,0;100;1,0;2,0;0,0;3,0;column;1,0;False;True;False;2,42900013924;True;0,671999931335
AKB1996w;experiment;2017-02-01-10-27-01;4,0;11,0;100;2,0;0,0;1,0;3,0;column;0,0;True;True;True;1,89899992943;True;0,62700009346
AKB1996w;experiment;2017-02-01-10-27-01;4,0;12,0;100;3,0;2,0;0,0;1,0;column;0,0;False;True;False;1,76600003242;True;1,4350001812
AKB1996w;experiment;2017-02-01-10-27-01;4,0;13,0;100;2,0;0,0;3,0;1,0;row;1,0;True;True;True;1,46599984169;True;0,9390001297
AKB1996w;experiment;2017-02-01-10-27-01;4,0;14,0;100;0,0;2,0;1,0;3,0;column;1,0;True;False;True;1,16699981689;True;0,805000066757
AKB1996w;experiment;2017-02-01-10-27-01;4,0;15,0;100;1,0;0,0;2,0;3,0;column;1,0;False;False;False;1,29999995232;True;0,696000099182
AKB1996w;experiment;2017-02-01-10-27-01;4,0;16,0;100;2,0;3,0;1,0;0,0;column;1,0;False;False;False;2,23300004005;True;0,96799993515
AKB1996w;experiment;2017-02-01-10-27-01;4,0;17,0;100;1,0;3,0;2,0;0,0;row;0,0;False;False;False;1,10000014305;True;1,00100016594
AKB1996w;experiment;2017-02-01-10-27-01;4,0;18,0;100;2,0;0,0;3,0;1,0;column;0,0;False;False;False;1,66599988937;True;1,12800002098
AKB1996w;experiment;2017-02-01-10-27-01;4,0;19,0;100;0,0;3,0;1,0;2,0;column;0,0;True;True;False;1,23300004005;False;0,533999919891
AKB1996w;experiment;2017-02-01-10-27-01;4,0;20,0;100;0,0;2,0;1,0;3,0;row;1,0;True;True;True;1,76600003242;True;0,665999889374
AKB1996w;experiment;2017-02-01-10-27-01;4,0;21,0;100;1,0;3,0;2,0;0,0;column;1,0;False;False;False;1,46700000763;True;0,803999900818
AKB1996w;experiment;2017-02-01-10-27-01;4,0;22,0;100;0,0;3,0;2,0;1,0;row;1,0;True;True;True;1,89899992943;True;0,800000190735
AKB1996w;experiment;2017-02-01-10-27-01;4,0;23,0;100;3,0;1,0;0,0;2,0;column;0,0;False;False;False;1,43200016022;True;1,39400005341
AKB1996w;experiment;2017-02-01-10-27-01;4,0;24,0;100;2,0;3,0;1,0;0,0;column;1,0;True;True;False;2,46700000763;False;1,36099982262
AKB1996w;experiment;2017-02-01-10-27-01;4,0;25,0;100;2,0;1,0;3,0;0,0;column;1,0;True;False;False;1,06600022316;False;1,3710000515
AKB1996w;experiment;2017-02-01-10-27-01;4,0;26,0;100;3,0;2,0;0,0;1,0;row;0,0;True;False;True;1,90000009537;True;0,631999969482
AKB1996w;experiment;2017-02-01-10-27-01;4,0;27,0;100;1,0;2,0;3,0;0,0;row;0,0;True;False;True;1,23399996758;True;1,20000004768
AKB1996w;experiment;2017-02-01-10-27-01;4,0;28,0;100;3,0;0,0;1,0;2,0;row;0,0;False;False;False;1,0;True;1,37300014496
AKB1996w;experiment;2017-02-01-10-27-01;4,0;29,0;100;3,0;1,0;0,0;2,0;row;0,0;False;False;False;1,03399991989;True;0,570000171661
AKB1996w;experiment;2017-02-01-10-27-01;4,0;30,0;100;2,0;1,0;3,0;0,0;row;1,0;True;True;True;1,46700000763;True;1,06999993324
AKB1996w;experiment;2017-02-01-10-27-01;4,0;31,0;100;3,0;2,0;1,0;0,0;column;0,0;True;False;True;1,26599979401;True;1,46900010109
AKB1996w;experiment;2017-02-01-10-27-01;4,0;32,0;100;0,0;3,0;1,0;2,0;row;1,0;True;False;False;0,766999959946;False;1,46099996567
AKB1996w;experiment;2017-02-01-10-27-01;4,0;33,0;100;0,0;1,0;2,0;3,0;column;1,0;True;False;True;2,29799985886;True;0,56500005722
AKB1996w;experiment;2017-02-01-10-27-01;4,0;34,0;100;3,0;0,0;2,0;1,0;column;0,0;False;False;False;2,83400011063;True;1,16900014877
AKB1996w;experiment;2017-02-01-10-27-01;4,0;35,0;100;2,0;3,0;1,0;0,0;column;0,0;False;True;False;1,23300004005;True;1,1970000267
AKB1996w;experiment;2017-02-01-10-27-01;4,0;36,0;100;3,0;0,0;1,0;2,0;column;0,0;True;True;True;1,73300004005;True;1,03699994087
AKB1996w;experiment;2017-02-01-10-27-01;4,0;37,0;100;2,0;3,0;1,0;0,0;row;0,0;False;True;False;1,10100007057;True;1,33899998665
AKB1996w;experiment;2017-02-01-10-27-01;4,0;38,0;100;1,0;3,0;2,0;0,0;row;1,0;True;False;True;1,53400015831;True;1,29700016975
AKB1996w;experiment;2017-02-01-10-27-01;4,0;39,0;100;1,0;2,0;3,0;0,0;column;0,0;False;False;False;3,367000103;True;0,866000175476
AKB1996w;experiment;2017-02-01-10-27-01;4,0;40,0;100;3,0;1,0;2,0;0,0;row;1,0;True;True;True;1,39900016785;True;1,43700003624
AKB1996w;experiment;2017-02-01-10-27-01;4,0;41,0;100;1,0;3,0;0,0;2,0;column;0,0;False;True;False;1,23399996758;True;1,42999982834
AKB1996w;experiment;2017-02-01-10-27-01;4,0;42,0;100;1,0;0,0;3,0;2,0;column;0,0;True;True;True;2,03299999237;True;0,605000019073
AKB1996w;experiment;2017-02-01-10-27-01;4,0;43,0;100;3,0;0,0;1,0;2,0;row;0,0;True;False;False;1,66700005531;False;0,700000047684
AKB1996w;experiment;2017-02-01-10-27-01;4,0;44,0;100;0,0;1,0;2,0;3,0;column;0,0;False;True;False;1,2009999752;True;1,47000002861
AKB1996w;experiment;2017-02-01-10-27-01;4,0;45,0;100;1,0;2,0;0,0;3,0;row;1,0;False;True;False;1,46600008011;True;0,928000211716
AKB1996w;experiment;2017-02-01-10-27-01;4,0;46,0;100;3,0;1,0;2,0;0,0;row;0,0;False;True;False;1,33099985123;True;1,49300003052
AKB1996w;experiment;2017-02-01-10-27-01;4,0;47,0;100;1,0;0,0;2,0;3,0;column;1,0;True;True;True;1,63199996948;True;0,968000173569
AKB1996w;experiment;2017-02-01-10-27-01;4,0;48,0;100;2,0;0,0;1,0;3,0;row;0,0;False;True;False;1,23500013351;True;0,731999874115
AKB1996w;experiment;2017-02-01-10-27-01;5,0;1,0;1000;3,0;1,0;0,0;2,0;column;1,0;False;False;False;1,06599998474;True;1,13700008392
AKB1996w;experiment;2017-02-01-10-27-01;5,0;2,0;1000;2,0;0,0;1,0;3,0;row;1,0;True;True;True;1,93299984932;True;1,42700004578
AKB1996w;experiment;2017-02-01-10-27-01;5,0;3,0;1000;1,0;3,0;0,0;2,0;row;0,0;False;True;False;1,46700000763;True;1,03500008583
AKB1996w;experiment;2017-02-01-10-27-01;5,0;4,0;1000;3,0;0,0;1,0;2,0;column;0,0;False;False;False;1,5;True;1,16899991035
AKB1996w;experiment;2017-02-01-10-27-01;5,0;5,0;1000;3,0;2,0;1,0;0,0;row;1,0;True;True;False;0,900000095367;False;1,33599996567
AKB1996w;experiment;2017-02-01-10-27-01;5,0;6,0;1000;3,0;0,0;1,0;2,0;row;1,0;False;True;False;1,06699991226;True;1,42900013924
AKB1996w;experiment;2017-02-01-10-27-01;5,0;7,0;1000;3,0;0,0;1,0;2,0;row;0,0;True;False;False;1,86500000954;False;1,30100011826
AKB1996w;experiment;2017-02-01-10-27-01;5,0;8,0;1000;0,0;1,0;3,0;2,0;row;0,0;False;True;False;2,06700015068;True;1,46399998665
AKB1996w;experiment;2017-02-01-10-27-01;5,0;9,0;1000;2,0;3,0;0,0;1,0;column;1,0;False;False;False;1,86599993706;True;1,16800022125
AKB1996w;experiment;2017-02-01-10-27-01;5,0;10,0;1000;1,0;0,0;2,0;3,0;column;1,0;True;False;True;3,06299996376;True;0,536999940872
AKB1996w;experiment;2017-02-01-10-27-01;5,0;11,0;1000;0,0;1,0;3,0;2,0;row;0,0;True;True;True;1,43300008774;True;1,26900005341
AKB1996w;experiment;2017-02-01-10-27-01;5,0;12,0;1000;1,0;0,0;2,0;3,0;column;1,0;False;True;False;1,20000004768;True;1,10299992561
AKB1996w;experiment;2017-02-01-10-27-01;5,0;13,0;1000;3,0;1,0;0,0;2,0;row;0,0;True;True;True;1,90000009537;True;1,33599996567
AKB1996w;experiment;2017-02-01-10-27-01;5,0;14,0;1000;2,0;1,0;3,0;0,0;row;1,0;False;False;False;1,7990000248;True;0,694999933243
AKB1996w;experiment;2017-02-01-10-27-01;5,0;15,0;1000;0,0;1,0;3,0;2,0;row;1,0;True;False;True;1,10000014305;True;0,759000062943
AKB1996w;experiment;2017-02-01-10-27-01;5,0;16,0;1000;0,0;3,0;2,0;1,0;column;0,0;False;False;False;1,16700005531;True;1,16799998283
AKB1996w;experiment;2017-02-01-10-27-01;5,0;17,0;1000;0,0;2,0;3,0;1,0;column;0,0;True;False;True;1,19799995422;True;1,16599988937
AKB1996w;experiment;2017-02-01-10-27-01;5,0;18,0;1000;2,0;0,0;1,0;3,0;column;1,0;False;True;False;1,69999980927;True;1,26699995995
AKB1996w;experiment;2017-02-01-10-27-01;5,0;19,0;1000;1,0;2,0;3,0;0,0;row;0,0;True;False;True;1,59899997711;True;0,532999992371
AKB1996w;experiment;2017-02-01-10-27-01;5,0;20,0;1000;1,0;0,0;2,0;3,0;row;0,0;False;False;False;1,16600012779;True;0,861000061035
AKB1996w;experiment;2017-02-01-10-27-01;5,0;21,0;1000;0,0;1,0;3,0;2,0;column;1,0;False;False;False;1,23300004005;True;1,33699989319
AKB1996w;experiment;2017-02-01-10-27-01;5,0;22,0;1000;1,0;2,0;0,0;3,0;column;0,0;True;True;True;1,13300013542;True;1,03600001335
AKB1996w;experiment;2017-02-01-10-27-01;5,0;23,0;1000;0,0;1,0;3,0;2,0;row;1,0;False;True;False;2,13100004196;True;0,559000015259
AKB1996w;experiment;2017-02-01-10-27-01;5,0;24,0;1000;1,0;2,0;3,0;0,0;row;0,0;False;True;False;1,66400003433;True;1,46900010109
AKB1996w;experiment;2017-02-01-10-27-01;5,0;25,0;1000;2,0;1,0;3,0;0,0;column;0,0;True;False;True;1,36599993706;True;1,492000103
AKB1996w;experiment;2017-02-01-10-27-01;5,0;26,0;1000;1,0;2,0;0,0;3,0;column;0,0;False;False;False;0,831000089645;True;1,16799998283
AKB1996w;experiment;2017-02-01-10-27-01;5,0;27,0;1000;1,0;0,0;3,0;2,0;column;0,0;True;False;False;1,33200001717;False;0,763999938965
AKB1996w;experiment;2017-02-01-10-27-01;5,0;28,0;1000;1,0;3,0;2,0;0,0;row;1,0;True;False;True;2,33200001717;True;0,701999902725
AKB1996w;experiment;2017-02-01-10-27-01;5,0;29,0;1000;3,0;1,0;2,0;0,0;row;1,0;True;True;False;1,26600003242;False;0,898999929428
AKB1996w;experiment;2017-02-01-10-27-01;5,0;30,0;1000;2,0;3,0;1,0;0,0;column;0,0;False;True;False;2,33299994469;True;0,700999975204
AKB1996w;experiment;2017-02-01-10-27-01;5,0;31,0;1000;1,0;3,0;0,0;2,0;row;1,0;True;False;True;2,10000014305;True;1,42900013924
AKB1996w;experiment;2017-02-01-10-27-01;5,0;32,0;1000;0,0;2,0;1,0;3,0;row;1,0;False;True;False;1,09999990463;True;0,93499994278
AKB1996w;experiment;2017-02-01-10-27-01;5,0;33,0;1000;3,0;1,0;0,0;2,0;column;1,0;True;False;True;1,66599988937;True;1,05999994278
AKB1996w;experiment;2017-02-01-10-27-01;5,0;34,0;1000;3,0;0,0;2,0;1,0;row;0,0;False;True;False;1,5;True;1,09200000763
AKB1996w;experiment;2017-02-01-10-27-01;5,0;35,0;1000;2,0;0,0;3,0;1,0;row;0,0;True;False;False;1,20000004768;False;1,09299993515
AKB1996w;experiment;2017-02-01-10-27-01;5,0;36,0;1000;2,0;3,0;0,0;1,0;row;0,0;False;True;False;1,03200006485;True;0,898000001907
AKB1996w;experiment;2017-02-01-10-27-01;5,0;37,0;1000;3,0;2,0;0,0;1,0;column;1,0;False;True;False;0,966999769211;True;1,33800005913
AKB1996w;experiment;2017-02-01-10-27-01;5,0;38,0;1000;1,0;2,0;3,0;0,0;column;0,0;True;False;True;1,60000014305;True;1,06300020218
AKB1996w;experiment;2017-02-01-10-27-01;5,0;39,0;1000;2,0;1,0;3,0;0,0;row;1,0;True;False;True;1,29999995232;True;1,17000007629
AKB1996w;experiment;2017-02-01-10-27-01;5,0;40,0;1000;3,0;0,0;1,0;2,0;row;0,0;False;False;False;0,900000095367;True;1,00199985504
AKB1996w;experiment;2017-02-01-10-27-01;5,0;41,0;1000;0,0;1,0;2,0;3,0;row;0,0;False;True;False;0,866999864578;True;0,826999902725
AKB1996w;experiment;2017-02-01-10-27-01;5,0;42,0;1000;2,0;0,0;1,0;3,0;row;0,0;False;True;False;1,66700005531;True;0,665999889374
AKB1996w;experiment;2017-02-01-10-27-01;5,0;43,0;1000;0,0;1,0;2,0;3,0;row;0,0;True;False;False;1,03299999237;False;1,39800000191
AKB1996w;experiment;2017-02-01-10-27-01;5,0;44,0;1000;2,0;3,0;0,0;1,0;column;0,0;True;True;True;1,5;True;1,10400009155
AKB1996w;experiment;2017-02-01-10-27-01;5,0;45,0;1000;2,0;3,0;1,0;0,0;row;0,0;False;True;False;1,13400006294;True;0,563999891281
AKB1996w;experiment;2017-02-01-10-27-01;5,0;46,0;1000;1,0;0,0;2,0;3,0;column;0,0;True;False;False;1,83299994469;False;0,832999944687
AKB1996w;experiment;2017-02-01-10-27-01;5,0;47,0;1000;3,0;0,0;1,0;2,0;row;1,0;True;True;False;2,60000014305;False;0,591000080109
AKB1996w;experiment;2017-02-01-10-27-01;5,0;48,0;1000;3,0;1,0;0,0;2,0;row;1,0;True;True;True;1,46700000763;True;1,09299993515
AKB1996w;experiment;2017-02-01-10-27-01;6,0;1,0;-100;2,0;1,0;0,0;3,0;column;1,0;True;False;True;1,45000004768;True;1,00699996948
AKB1996w;experiment;2017-02-01-10-27-01;6,0;2,0;-100;2,0;0,0;3,0;1,0;column;1,0;False;True;False;1,31599998474;True;0,927999973297
AKB1996w;experiment;2017-02-01-10-27-01;6,0;3,0;-100;3,0;1,0;0,0;2,0;row;1,0;True;False;True;1,47800016403;True;0,835000038147
AKB1996w;experiment;2017-02-01-10-27-01;6,0;4,0;-100;0,0;2,0;3,0;1,0;row;0,0;False;True;False;0,982999801636;True;0,569999933243
AKB1996w;experiment;2017-02-01-10-27-01;6,0;5,0;-100;3,0;0,0;1,0;2,0;row;0,0;False;False;False;1,71500015259;True;1,10700011253
AKB1996w;experiment;2017-02-01-10-27-01;6,0;6,0;-100;0,0;1,0;3,0;2,0;row;0,0;False;True;False;1,57500004768;True;0,56299996376
AKB1996w;experiment;2017-02-01-10-27-01;6,0;7,0;-100;0,0;3,0;1,0;2,0;row;1,0;True;True;True;1,58300018311;True;0,633000135422
AKB1996w;experiment;2017-02-01-10-27-01;6,0;8,0;-100;0,0;2,0;1,0;3,0;row;1,0;False;True;False;1,05000019073;True;0,539000034332
AKB1996w;experiment;2017-02-01-10-27-01;6,0;9,0;-100;0,0;1,0;2,0;3,0;row;0,0;True;False;True;1,31500005722;True;0,898000001907
AKB1996w;experiment;2017-02-01-10-27-01;6,0;10,0;-100;3,0;0,0;2,0;1,0;column;1,0;False;True;False;1,35000014305;True;0,861999988556
AKB1996w;experiment;2017-02-01-10-27-01;6,0;11,0;-100;0,0;3,0;2,0;1,0;row;0,0;True;False;True;0,813999891281;True;0,938999891281
AKB1996w;experiment;2017-02-01-10-27-01;6,0;12,0;-100;3,0;0,0;2,0;1,0;column;0,0;False;False;False;1,04700016975;True;1,47000002861
AKB1996w;experiment;2017-02-01-10-27-01;6,0;13,0;-100;0,0;1,0;3,0;2,0;column;0,0;False;True;False;1,07899999619;True;0,998999834061
AKB1996w;experiment;2017-02-01-10-27-01;6,0;14,0;-100;3,0;2,0;1,0;0,0;row;1,0;False;False;False;1,617000103;True;1,33000016212
AKB1996w;experiment;2017-02-01-10-27-01;6,0;15,0;-100;3,0;0,0;2,0;1,0;row;0,0;True;False;True;0,815999984741;True;1,48599982262
AKB1996w;experiment;2017-02-01-10-27-01;6,0;16,0;-100;3,0;1,0;0,0;2,0;column;0,0;True;False;True;0,981999874115;True;0,928999900818
AKB1996w;experiment;2017-02-01-10-27-01;6,0;17,0;-100;1,0;2,0;0,0;3,0;row;1,0;True;False;True;0,850000143051;True;0,563999891281
AKB1996w;experiment;2017-02-01-10-27-01;6,0;18,0;-100;3,0;1,0;2,0;0,0;row;1,0;True;False;True;1,21799993515;True;0,796999931335
AKB1996w;experiment;2017-02-01-10-27-01;6,0;19,0;-100;0,0;3,0;2,0;1,0;column;0,0;True;False;True;0,716000080109;True;0,802000045776
AKB1996w;experiment;2017-02-01-10-27-01;6,0;20,0;-100;0,0;1,0;2,0;3,0;row;0,0;False;True;False;0,846999883652;True;1,49500012398
AKB1996w;experiment;2017-02-01-10-27-01;6,0;21,0;-100;2,0;0,0;1,0;3,0;row;0,0;True;True;True;1,41400003433;True;0,771999835968
AKB1996w;experiment;2017-02-01-10-27-01;6,0;22,0;-100;1,0;2,0;3,0;0,0;row;1,0;True;False;True;1,3149998188;True;0,932000160217
AKB1996w;experiment;2017-02-01-10-27-01;6,0;23,0;-100;2,0;3,0;1,0;0,0;column;0,0;True;False;True;0,916999816895;True;1,16199994087
AKB1996w;experiment;2017-02-01-10-27-01;6,0;24,0;-100;3,0;0,0;2,0;1,0;column;1,0;True;True;True;1,11400008202;True;0,901999950409
AKB1996w;experiment;2017-02-01-10-27-01;6,0;25,0;-100;2,0;3,0;0,0;1,0;row;0,0;False;True;False;1,41499996185;True;0,570999860764
AKB1996w;experiment;2017-02-01-10-27-01;6,0;26,0;-100;1,0;2,0;0,0;3,0;row;0,0;True;False;True;0,882999897003;True;1,32399988174
AKB1996w;experiment;2017-02-01-10-27-01;6,0;27,0;-100;0,0;3,0;1,0;2,0;row;1,0;False;False;False;1,51600003242;True;0,835999965668
AKB1996w;experiment;2017-02-01-10-27-01;6,0;28,0;-100;2,0;1,0;3,0;0,0;row;0,0;True;True;True;0,817000150681;True;1,20799994469
AKB1996w;experiment;2017-02-01-10-27-01;6,0;29,0;-100;3,0;1,0;2,0;0,0;column;0,0;False;True;False;1,21500015259;True;0,536999940872
AKB1996w;experiment;2017-02-01-10-27-01;6,0;30,0;-100;1,0;3,0;0,0;2,0;column;0,0;False;True;False;0,850000143051;True;1,19800019264
AKB1996w;experiment;2017-02-01-10-27-01;6,0;31,0;-100;2,0;0,0;1,0;3,0;row;1,0;True;True;True;0,916999816895;True;1,30200004578
AKB1996w;experiment;2017-02-01-10-27-01;6,0;32,0;-100;3,0;0,0;1,0;2,0;row;1,0;True;True;True;0,881999969482;True;1,29399991035
AKB1996w;experiment;2017-02-01-10-27-01;6,0;33,0;-100;2,0;0,0;3,0;1,0;row;0,0;False;False;False;1,15000009537;True;1,22699999809
AKB1996w;experiment;2017-02-01-10-27-01;6,0;34,0;-100;1,0;0,0;3,0;2,0;column;1,0;False;False;False;1,34599995613;True;0,595999956131
AKB1996w;experiment;2017-02-01-10-27-01;6,0;35,0;-100;1,0;0,0;2,0;3,0;row;1,0;False;False;False;1,14900016785;True;0,871999979019
AKB1996w;experiment;2017-02-01-10-27-01;6,0;36,0;-100;1,0;3,0;2,0;0,0;column;1,0;True;False;True;1,25;True;1,23300004005
AKB1996w;experiment;2017-02-01-10-27-01;6,0;37,0;-100;2,0;3,0;0,0;1,0;column;0,0;False;True;False;1,08200001717;True;0,603000164032
AKB1996w;experiment;2017-02-01-10-27-01;6,0;38,0;-100;2,0;0,0;1,0;3,0;row;1,0;False;False;False;0,917000055313;True;1,40299987793
AKB1996w;experiment;2017-02-01-10-27-01;6,0;39,0;-100;3,0;2,0;0,0;1,0;column;1,0;True;True;True;1,44999980927;True;1,46799993515
AKB1996w;experiment;2017-02-01-10-27-01;6,0;40,0;-100;1,0;2,0;0,0;3,0;column;0,0;True;False;True;1,81799983978;True;1,12800002098
AKB1996w;experiment;2017-02-01-10-27-01;6,0;41,0;-100;0,0;2,0;1,0;3,0;row;1,0;True;True;True;1,04999995232;True;0,632000207901
AKB1996w;experiment;2017-02-01-10-27-01;6,0;42,0;-100;3,0;0,0;2,0;1,0;row;1,0;False;True;False;1,27200007439;True;1,41199994087
AKB1996w;experiment;2017-02-01-10-27-01;6,0;43,0;-100;2,0;0,0;1,0;3,0;row;0,0;False;False;False;1,41700005531;True;1,25900006294
AKB1996w;experiment;2017-02-01-10-27-01;6,0;44,0;-100;0,0;3,0;1,0;2,0;column;0,0;False;False;False;1,34999990463;True;0,539000034332
AKB1996w;experiment;2017-02-01-10-27-01;6,0;45,0;-100;3,0;1,0;0,0;2,0;column;1,0;False;False;False;1,01600003242;True;0,896999835968
AKB1996w;experiment;2017-02-01-10-27-01;6,0;46,0;-100;3,0;1,0;0,0;2,0;row;0,0;True;True;True;1,64999985695;True;1,33699989319
AKB1996w;experiment;2017-02-01-10-27-01;6,0;47,0;-100;2,0;0,0;1,0;3,0;column;0,0;True;False;True;1,23300004005;True;0,926999807358
AKB1996w;experiment;2017-02-01-10-27-01;6,0;48,0;-100;0,0;2,0;3,0;1,0;row;1,0;False;True;False;0,983999967575;True;1,39400005341
AKB1996w;experiment;2017-02-01-10-27-01;7,0;1,0;-100;1,0;2,0;3,0;0,0;column;1,0;False;False;False;1,24900007248;True;1,11600017548
AKB1996w;experiment;2017-02-01-10-27-01;7,0;2,0;-100;1,0;0,0;3,0;2,0;row;1,0;True;True;True;0,883000135422;True;1,46700000763
AKB1996w;experiment;2017-02-01-10-27-01;7,0;3,0;-100;0,0;1,0;2,0;3,0;column;0,0;True;True;True;1,18000006676;True;1,23200011253
AKB1996w;experiment;2017-02-01-10-27-01;7,0;4,0;-100;0,0;1,0;3,0;2,0;row;1,0;False;True;False;2,18300008774;True;0,901999950409
AKB1996w;experiment;2017-02-01-10-27-01;7,0;5,0;-100;3,0;1,0;2,0;0,0;row;1,0;False;False;False;1,25099992752;True;1,10199999809
AKB1996w;experiment;2017-02-01-10-27-01;7,0;6,0;-100;1,0;3,0;2,0;0,0;row;1,0;True;True;True;0,816999912262;True;0,769000053406
AKB1996w;experiment;2017-02-01-10-27-01;7,0;7,0;-100;3,0;1,0;2,0;0,0;column;0,0;True;False;True;0,983000040054;True;1,12800002098
AKB1996w;experiment;2017-02-01-10-27-01;7,0;8,0;-100;0,0;2,0;1,0;3,0;row;0,0;False;False;False;1,41700005531;True;0,868999958038
AKB1996w;experiment;2017-02-01-10-27-01;7,0;9,0;-100;2,0;3,0;1,0;0,0;row;0,0;True;False;True;0,916000127792;True;0,598999977112
AKB1996w;experiment;2017-02-01-10-27-01;7,0;10,0;-100;2,0;1,0;0,0;3,0;column;0,0;False;True;False;1,18200016022;True;1,13899993896
AKB1996w;experiment;2017-02-01-10-27-01;7,0;11,0;-100;2,0;1,0;0,0;3,0;row;0,0;False;True;False;1,54999995232;True;0,733999967575
AKB1996w;experiment;2017-02-01-10-27-01;7,0;12,0;-100;0,0;1,0;3,0;2,0;column;1,0;False;True;False;1,05700016022;True;0,604000091553
AKB1996w;experiment;2017-02-01-10-27-01;7,0;13,0;-100;1,0;2,0;0,0;3,0;row;0,0;False;False;False;0,882999897003;True;1,17100000381
AKB1996w;experiment;2017-02-01-10-27-01;7,0;14,0;-100;3,0;2,0;0,0;1,0;row;1,0;False;False;False;0,848999977112;True;1,06999993324
AKB1996w;experiment;2017-02-01-10-27-01;7,0;15,0;-100;3,0;2,0;0,0;1,0;row;0,0;True;False;True;0,782999992371;True;0,901999950409
AKB1996w;experiment;2017-02-01-10-27-01;7,0;16,0;-100;1,0;0,0;3,0;2,0;row;0,0;True;True;False;1,04999995232;False;0,767000198364
AKB1996w;experiment;2017-02-01-10-27-01;7,0;17,0;-100;0,0;1,0;3,0;2,0;row;1,0;True;True;True;1,21599984169;True;0,539999961853
AKB1996w;experiment;2017-02-01-10-27-01;7,0;18,0;-100;0,0;2,0;3,0;1,0;column;0,0;True;True;True;1,31599998474;True;1,40599989891
AKB1996w;experiment;2017-02-01-10-27-01;7,0;19,0;-100;2,0;0,0;3,0;1,0;column;1,0;True;False;True;0,983000040054;True;0,834000110626
AKB1996w;experiment;2017-02-01-10-27-01;7,0;20,0;-100;3,0;1,0;2,0;0,0;column;1,0;True;True;True;1,04999995232;True;0,634000062943
AKB1996w;experiment;2017-02-01-10-27-01;7,0;21,0;-100;3,0;0,0;1,0;2,0;column;1,0;True;True;True;1,21600008011;True;0,630000114441
AKB1996w;experiment;2017-02-01-10-27-01;7,0;22,0;-100;0,0;1,0;2,0;3,0;column;1,0;True;True;True;1,25;True;1,06399989128
AKB1996w;experiment;2017-02-01-10-27-01;7,0;23,0;-100;3,0;2,0;1,0;0,0;column;0,0;False;True;False;0,884000062943;True;1,02900004387
AKB1996w;experiment;2017-02-01-10-27-01;7,0;24,0;-100;3,0;1,0;0,0;2,0;row;1,0;False;True;False;1,71600008011;True;0,533999919891
AKB1996w;experiment;2017-02-01-10-27-01;7,0;25,0;-100;2,0;1,0;3,0;0,0;column;0,0;False;True;False;1,01499986649;True;1,42999982834
AKB1996w;experiment;2017-02-01-10-27-01;7,0;26,0;-100;3,0;0,0;2,0;1,0;row;0,0;False;False;False;0,851000070572;True;0,698999881744
AKB1996w;experiment;2017-02-01-10-27-01;7,0;27,0;-100;2,0;0,0;1,0;3,0;column;1,0;False;False;False;1,31599998474;True;1,20199990273
AKB1996w;experiment;2017-02-01-10-27-01;7,0;28,0;-100;0,0;2,0;1,0;3,0;column;1,0;True;True;True;1,01499986649;True;0,993000030518
AKB1996w;experiment;2017-02-01-10-27-01;7,0;29,0;-100;3,0;0,0;1,0;2,0;column;1,0;False;False;False;1,02399992943;True;0,634999990463
AKB1996w;experiment;2017-02-01-10-27-01;7,0;30,0;-100;0,0;2,0;3,0;1,0;column;1,0;False;True;False;0,888000011444;True;1,26800012589
AKB1996w;experiment;2017-02-01-10-27-01;7,0;31,0;-100;0,0;3,0;1,0;2,0;column;1,0;False;False;False;0,949999809265;True;1,16900014877
AKB1996w;experiment;2017-02-01-10-27-01;7,0;32,0;-100;1,0;3,0;0,0;2,0;column;0,0;True;True;True;1,08299994469;True;1,02699995041
AKB1996w;experiment;2017-02-01-10-27-01;7,0;33,0;-100;0,0;2,0;1,0;3,0;column;1,0;False;True;False;0,983000040054;True;1,19400000572
AKB1996w;experiment;2017-02-01-10-27-01;7,0;34,0;-100;2,0;1,0;3,0;0,0;row;0,0;False;False;False;0,815999984741;True;0,967000007629
AKB1996w;experiment;2017-02-01-10-27-01;7,0;35,0;-100;1,0;3,0;2,0;0,0;row;1,0;False;True;False;1,65000009537;True;0,569999933243
AKB1996w;experiment;2017-02-01-10-27-01;7,0;36,0;-100;3,0;2,0;1,0;0,0;row;0,0;False;True;False;1,68299984932;True;0,771000146866
AKB1996w;experiment;2017-02-01-10-27-01;7,0;37,0;-100;0,0;1,0;3,0;2,0;row;0,0;True;True;True;0,784999847412;True;0,97000002861
AKB1996w;experiment;2017-02-01-10-27-01;7,0;38,0;-100;0,0;2,0;1,0;3,0;column;0,0;True;False;True;1,21599984169;True;1,03699994087
AKB1996w;experiment;2017-02-01-10-27-01;7,0;39,0;-100;0,0;3,0;1,0;2,0;column;0,0;True;True;True;2,14800000191;True;1,26099991798
AKB1996w;experiment;2017-02-01-10-27-01;7,0;40,0;-100;2,0;1,0;3,0;0,0;column;1,0;False;False;False;1,28199982643;True;1,0
AKB1996w;experiment;2017-02-01-10-27-01;7,0;41,0;-100;1,0;2,0;0,0;3,0;column;1,0;False;True;False;1,22500014305;True;1,36800003052
AKB1996w;experiment;2017-02-01-10-27-01;7,0;42,0;-100;3,0;2,0;1,0;0,0;column;0,0;True;False;True;0,917000055313;True;0,594000101089
AKB1996w;experiment;2017-02-01-10-27-01;7,0;43,0;-100;1,0;2,0;3,0;0,0;column;0,0;True;True;True;1,01699995995;True;1,46700000763
AKB1996w;experiment;2017-02-01-10-27-01;7,0;44,0;-100;1,0;2,0;0,0;3,0;column;1,0;True;False;False;1,04999995232;False;1,22900009155
AKB1996w;experiment;2017-02-01-10-27-01;7,0;45,0;-100;2,0;0,0;1,0;3,0;column;0,0;False;False;False;1,85899996758;True;0,826999902725
AKB1996w;experiment;2017-02-01-10-27-01;7,0;46,0;-100;1,0;3,0;0,0;2,0;column;1,0;False;False;False;1,28099989891;True;1,12800002098
AKB1996w;experiment;2017-02-01-10-27-01;7,0;47,0;-100;3,0;0,0;1,0;2,0;column;0,0;True;True;True;0,881999969482;True;0,697000026703
AKB1996w;experiment;2017-02-01-10-27-01;7,0;48,0;-100;2,0;1,0;0,0;3,0;row;1,0;False;False;False;2,77999997139;True;1,43799996376
AKB1996w;experiment;2017-02-01-10-27-01;8,0;1,0;1000;2,0;3,0;1,0;0,0;column;1,0;False;True;False;1,09999990463;True;1,4279999733
AKB1996w;experiment;2017-02-01-10-27-01;8,0;2,0;1000;0,0;3,0;1,0;2,0;row;0,0;False;False;False;1,46499991417;True;0,96799993515
AKB1996w;experiment;2017-02-01-10-27-01;8,0;3,0;1000;0,0;1,0;3,0;2,0;column;1,0;True;True;True;1,39999985695;True;1,36800003052
AKB1996w;experiment;2017-02-01-10-27-01;8,0;4,0;1000;0,0;2,0;3,0;1,0;row;0,0;True;False;True;1,03299999237;True;1,46900010109
AKB1996w;experiment;2017-02-01-10-27-01;8,0;5,0;1000;0,0;3,0;2,0;1,0;column;0,0;True;True;False;1,53299999237;False;1,26699995995
AKB1996w;experiment;2017-02-01-10-27-01;8,0;6,0;1000;2,0;1,0;0,0;3,0;column;0,0;True;False;True;0,900000095367;True;1,30399990082
AKB1996w;experiment;2017-02-01-10-27-01;8,0;7,0;1000;2,0;0,0;3,0;1,0;column;1,0;True;False;False;1,16499996185;False;1,40000009537
AKB1996w;experiment;2017-02-01-10-27-01;8,0;8,0;1000;1,0;3,0;0,0;2,0;column;1,0;False;True;True;1,53399991989;False;1,16199994087
AKB1996w;experiment;2017-02-01-10-27-01;8,0;9,0;1000;2,0;0,0;3,0;1,0;column;0,0;True;True;True;1,83400011063;True;0,632999897003
AKB1996w;experiment;2017-02-01-10-27-01;8,0;10,0;1000;0,0;1,0;3,0;2,0;column;0,0;True;True;True;1,70000004768;True;0,526999950409
AKB1996w;experiment;2017-02-01-10-27-01;8,0;11,0;1000;0,0;2,0;1,0;3,0;column;0,0;True;False;True;0,963999986649;True;0,526000022888
AKB1996w;experiment;2017-02-01-10-27-01;8,0;12,0;1000;0,0;1,0;2,0;3,0;row;1,0;True;True;True;1,29999995232;True;1,40400004387
AKB1996w;experiment;2017-02-01-10-27-01;8,0;13,0;1000;1,0;3,0;0,0;2,0;column;0,0;True;True;True;2,00099992752;True;1,46999979019
AKB1996w;experiment;2017-02-01-10-27-01;8,0;14,0;1000;0,0;3,0;2,0;1,0;column;1,0;False;True;False;1,06699991226;True;0,90299987793
AKB1996w;experiment;2017-02-01-10-27-01;8,0;15,0;1000;2,0;0,0;1,0;3,0;row;0,0;True;True;True;2,26699995995;True;1,33400011063
AKB1996w;experiment;2017-02-01-10-27-01;8,0;16,0;1000;1,0;3,0;2,0;0,0;row;0,0;True;False;True;1,03399991989;True;0,566999912262
AKB1996w;experiment;2017-02-01-10-27-01;8,0;17,0;1000;1,0;3,0;2,0;0,0;column;0,0;True;False;True;1,06699991226;True;1,42500019073
AKB1996w;experiment;2017-02-01-10-27-01;8,0;18,0;1000;0,0;2,0;1,0;3,0;column;1,0;True;False;True;0,967000007629;True;1,10199999809
AKB1996w;experiment;2017-02-01-10-27-01;8,0;19,0;1000;3,0;1,0;2,0;0,0;column;1,0;False;True;False;1,40000009537;True;1,33200001717
AKB1996w;experiment;2017-02-01-10-27-01;8,0;20,0;1000;1,0;0,0;3,0;2,0;column;1,0;False;False;False;1,2990000248;True;0,957999944687
AKB1996w;experiment;2017-02-01-10-27-01;8,0;21,0;1000;3,0;1,0;0,0;2,0;column;0,0;True;False;True;0,966999769211;True;1,19799995422
AKB1996w;experiment;2017-02-01-10-27-01;8,0;22,0;1000;0,0;3,0;1,0;2,0;column;1,0;False;True;False;0,999000072479;True;1,13400006294
AKB1996w;experiment;2017-02-01-10-27-01;8,0;23,0;1000;2,0;0,0;1,0;3,0;row;1,0;False;False;False;1,36599993706;True;0,933000087738
AKB1996w;experiment;2017-02-01-10-27-01;8,0;24,0;1000;3,0;2,0;0,0;1,0;row;0,0;True;False;True;0,832999944687;True;0,598999977112
AKB1996w;experiment;2017-02-01-10-27-01;8,0;25,0;1000;1,0;2,0;0,0;3,0;row;1,0;True;False;False;0,930999994278;False;1,07000017166
AKB1996w;experiment;2017-02-01-10-27-01;8,0;26,0;1000;3,0;2,0;1,0;0,0;column;0,0;False;False;False;1,0;True;0,657999992371
AKB1996w;experiment;2017-02-01-10-27-01;8,0;27,0;1000;1,0;2,0;3,0;0,0;column;1,0;True;False;False;1,16700005531;False;1,10299992561
AKB1996w;experiment;2017-02-01-10-27-01;8,0;28,0;1000;1,0;3,0;0,0;2,0;row;1,0;False;True;False;1,60100007057;True;1,19799995422
AKB1996w;experiment;2017-02-01-10-27-01;8,0;29,0;1000;2,0;3,0;0,0;1,0;column;1,0;True;False;True;1,03400015831;True;1,367000103
AKB1996w;experiment;2017-02-01-10-27-01;8,0;30,0;1000;0,0;3,0;2,0;1,0;row;1,0;False;True;False;1,33299994469;True;0,534999847412
AKB1996w;experiment;2017-02-01-10-27-01;8,0;31,0;1000;0,0;2,0;3,0;1,0;row;1,0;False;False;False;1,33100008965;True;1,43400001526
AKB1996w;experiment;2017-02-01-10-27-01;8,0;32,0;1000;0,0;3,0;1,0;2,0;column;1,0;True;False;True;1,40000009537;True;1,4929997921
AKB1996w;experiment;2017-02-01-10-27-01;8,0;33,0;1000;3,0;0,0;2,0;1,0;column;0,0;False;False;False;1,53399991989;True;1,20000004768
AKB1996w;experiment;2017-02-01-10-27-01;8,0;34,0;1000;2,0;1,0;0,0;3,0;row;1,0;False;False;False;0,865999937057;True;0,835999965668
AKB1996w;experiment;2017-02-01-10-27-01;8,0;35,0;1000;3,0;1,0;2,0;0,0;column;0,0;False;False;False;1,16699981689;True;0,868000030518
AKB1996w;experiment;2017-02-01-10-27-01;8,0;36,0;1000;0,0;3,0;1,0;2,0;row;1,0;True;False;True;1,83299994469;True;1,39900016785
AKB1996w;experiment;2017-02-01-10-27-01;8,0;37,0;1000;2,0;3,0;0,0;1,0;row;0,0;True;True;True;1,03299999237;True;0,865999937057
AKB1996w;experiment;2017-02-01-10-27-01;8,0;38,0;1000;2,0;3,0;0,0;1,0;column;0,0;False;True;False;1,60100007057;True;1,46900010109
AKB1996w;experiment;2017-02-01-10-27-01;8,0;39,0;1000;2,0;1,0;0,0;3,0;row;0,0;True;False;True;1,76600003242;True;0,97000002861
AKB1996w;experiment;2017-02-01-10-27-01;8,0;40,0;1000;0,0;3,0;2,0;1,0;row;0,0;True;False;True;0,934000015259;True;0,633999824524
AKB1996w;experiment;2017-02-01-10-27-01;8,0;41,0;1000;3,0;2,0;0,0;1,0;row;1,0;True;True;False;1,36800003052;False;1,00099992752
AKB1996w;experiment;2017-02-01-10-27-01;8,0;42,0;1000;1,0;0,0;3,0;2,0;row;0,0;True;True;False;0,934000015259;False;1,46900010109
AKB1996w;experiment;2017-02-01-10-27-01;8,0;43,0;1000;1,0;3,0;0,0;2,0;column;0,0;False;False;False;3,19799995422;True;0,662000179291
AKB1996w;experiment;2017-02-01-10-27-01;8,0;44,0;1000;1,0;3,0;0,0;2,0;row;0,0;True;False;True;1,43300008774;True;0,866999864578
AKB1996w;experiment;2017-02-01-10-27-01;8,0;45,0;1000;1,0;2,0;0,0;3,0;column;1,0;False;True;False;1,33300018311;True;0,901000022888
AKB1996w;experiment;2017-02-01-10-27-01;8,0;46,0;1000;2,0;3,0;0,0;1,0;row;1,0;False;False;False;1,76600003242;True;1,1369998455
AKB1996w;experiment;2017-02-01-10-27-01;8,0;47,0;1000;0,0;2,0;3,0;1,0;column;1,0;False;False;False;3,56200003624;True;0,967000007629
AKB1996w;experiment;2017-02-01-10-27-01;8,0;48,0;1000;2,0;3,0;1,0;0,0;column;1,0;True;True;True;1,56599998474;True;1,03400015831
AKB1996w;experiment;2017-02-01-10-27-01;9,0;1,0;100;0,0;3,0;1,0;2,0;row;0,0;False;True;False;1,33200001717;True;1,05999994278
AKB1996w;experiment;2017-02-01-10-27-01;9,0;2,0;100;0,0;1,0;3,0;2,0;row;0,0;True;False;True;1,06500005722;True;1,39699983597
AKB1996w;experiment;2017-02-01-10-27-01;9,0;3,0;100;2,0;1,0;3,0;0,0;row;0,0;True;False;True;0,667000055313;True;1,23200011253
AKB1996w;experiment;2017-02-01-10-27-01;9,0;4,0;100;0,0;3,0;2,0;1,0;column;0,0;False;True;False;1,20000004768;True;0,864000082016
AKB1996w;experiment;2017-02-01-10-27-01;9,0;5,0;100;0,0;3,0;1,0;2,0;row;0,0;True;True;True;0,733000040054;True;1,36899995804
AKB1996w;experiment;2017-02-01-10-27-01;9,0;6,0;100;1,0;0,0;2,0;3,0;column;0,0;True;True;True;1,33200001717;True;1,06900000572
AKB1996w;experiment;2017-02-01-10-27-01;9,0;7,0;100;3,0;1,0;2,0;0,0;column;1,0;True;False;True;1,4319999218;True;1,43600010872
AKB1996w;experiment;2017-02-01-10-27-01;9,0;8,0;100;1,0;3,0;0,0;2,0;row;1,0;False;True;False;1,73200011253;True;0,833999872208
AKB1996w;experiment;2017-02-01-10-27-01;9,0;9,0;100;0,0;3,0;2,0;1,0;column;1,0;True;False;True;1,23300004005;True;1,23399996758
AKB1996w;experiment;2017-02-01-10-27-01;9,0;10,0;100;1,0;3,0;2,0;0,0;row;1,0;False;False;False;1,632999897;True;0,897000074387
AKB1996w;experiment;2017-02-01-10-27-01;9,0;11,0;100;0,0;2,0;3,0;1,0;row;0,0;False;True;False;1,33299994469;True;1,23399996758
AKB1996w;experiment;2017-02-01-10-27-01;9,0;12,0;100;2,0;0,0;1,0;3,0;row;1,0;False;True;False;1,43299984932;True;1,43399977684
AKB1996w;experiment;2017-02-01-10-27-01;9,0;13,0;100;0,0;1,0;3,0;2,0;column;0,0;True;True;True;1,09999990463;True;1,12999987602
AKB1996w;experiment;2017-02-01-10-27-01;9,0;14,0;100;3,0;2,0;0,0;1,0;column;0,0;True;True;True;1,09999990463;True;1,39499998093
AKB1996w;experiment;2017-02-01-10-27-01;9,0;15,0;100;2,0;1,0;3,0;0,0;row;0,0;False;False;False;0,966000080109;True;1,33599996567
AKB1996w;experiment;2017-02-01-10-27-01;9,0;16,0;100;1,0;0,0;3,0;2,0;column;1,0;True;True;True;0,899999856949;True;1,12599992752
AKB1996w;experiment;2017-02-01-10-27-01;9,0;17,0;100;1,0;3,0;0,0;2,0;column;1,0;True;False;True;1,20000004768;True;1,1709997654
AKB1996w;experiment;2017-02-01-10-27-01;9,0;18,0;100;3,0;2,0;1,0;0,0;row;1,0;True;False;True;1,40000009537;True;0,503000020981
AKB1996w;experiment;2017-02-01-10-27-01;9,0;19,0;100;1,0;2,0;0,0;3,0;row;0,0;True;False;True;1,132999897;True;0,571000099182
AKB1996w;experiment;2017-02-01-10-27-01;9,0;20,0;100;0,0;2,0;3,0;1,0;column;0,0;True;True;True;0,763999938965;True;1,07099986076
AKB1996w;experiment;2017-02-01-10-27-01;9,0;21,0;100;3,0;2,0;1,0;0,0;row;0,0;False;False;False;1,2009999752;True;1,3630001545
AKB1996w;experiment;2017-02-01-10-27-01;9,0;22,0;100;2,0;0,0;1,0;3,0;column;1,0;True;True;True;1,20000004768;True;0,793000221252
AKB1996w;experiment;2017-02-01-10-27-01;9,0;23,0;100;3,0;1,0;0,0;2,0;row;1,0;False;True;False;1,30000019073;True;1,16699981689
AKB1996w;experiment;2017-02-01-10-27-01;9,0;24,0;100;3,0;1,0;2,0;0,0;column;0,0;True;False;True;1,23300004005;True;0,703999996185
AKB1996w;experiment;2017-02-01-10-27-01;9,0;25,0;100;0,0;1,0;2,0;3,0;row;1,0;False;True;False;1,33299994469;True;1,09399986267
AKB1996w;experiment;2017-02-01-10-27-01;9,0;26,0;100;0,0;2,0;3,0;1,0;row;1,0;True;False;True;1,43400001526;True;1,17100000381
AKB1996w;experiment;2017-02-01-10-27-01;9,0;27,0;100;3,0;1,0;0,0;2,0;column;1,0;False;True;False;1,36599993706;True;1,09599995613
AKB1996w;experiment;2017-02-01-10-27-01;9,0;28,0;100;2,0;3,0;1,0;0,0;column;0,0;True;True;True;1,13300013542;True;0,758999824524
AKB1996w;experiment;2017-02-01-10-27-01;9,0;29,0;100;3,0;2,0;0,0;1,0;column;1,0;False;True;False;1,29999995232;True;1,16200017929
AKB1996w;experiment;2017-02-01-10-27-01;9,0;30,0;100;1,0;2,0;0,0;3,0;column;0,0;False;True;False;1,10000014305;True;1,33599996567
AKB1996w;experiment;2017-02-01-10-27-01;9,0;31,0;100;3,0;1,0;2,0;0,0;row;0,0;True;False;True;0,934000015259;True;0,533999919891
AKB1996w;experiment;2017-02-01-10-27-01;9,0;32,0;100;0,0;2,0;3,0;1,0;row;0,0;True;True;True;0,966000080109;True;1,06799983978
AKB1996w;experiment;2017-02-01-10-27-01;9,0;33,0;100;2,0;1,0;0,0;3,0;column;1,0;True;True;True;1,03400015831;True;0,996000051498
AKB1996w;experiment;2017-02-01-10-27-01;9,0;34,0;100;1,0;2,0;3,0;0,0;column;1,0;False;True;False;1,2009999752;True;0,797000169754
AKB1996w;experiment;2017-02-01-10-27-01;9,0;35,0;100;3,0;0,0;1,0;2,0;column;0,0;False;False;False;1,43299984932;True;1,16100001335
AKB1996w;experiment;2017-02-01-10-27-01;9,0;36,0;100;0,0;1,0;3,0;2,0;column;0,0;False;True;False;0,963000059128;True;0,868999958038
AKB1996w;experiment;2017-02-01-10-27-01;9,0;37,0;100;2,0;3,0;0,0;1,0;row;0,0;True;True;True;1,132999897;True;0,871000051498
AKB1996w;experiment;2017-02-01-10-27-01;9,0;38,0;100;0,0;1,0;3,0;2,0;row;0,0;False;True;False;1,16699981689;True;0,603000164032
AKB1996w;experiment;2017-02-01-10-27-01;9,0;39,0;100;2,0;3,0;0,0;1,0;row;0,0;False;True;False;1,26399993896;True;1,09299993515
AKB1996w;experiment;2017-02-01-10-27-01;9,0;40,0;100;0,0;2,0;1,0;3,0;column;0,0;True;False;True;0,999000072479;True;1,20300006866
AKB1996w;experiment;2017-02-01-10-27-01;9,0;41,0;100;0,0;2,0;1,0;3,0;row;1,0;False;False;False;2,66799998283;True;1,03699994087
AKB1996w;experiment;2017-02-01-10-27-01;9,0;42,0;100;1,0;2,0;0,0;3,0;column;0,0;True;False;True;1,13399982452;True;1,3029999733
AKB1996w;experiment;2017-02-01-10-27-01;9,0;43,0;100;1,0;2,0;0,0;3,0;row;1,0;True;True;True;1,0;True;0,963999986649
AKB1996w;experiment;2017-02-01-10-27-01;9,0;44,0;100;2,0;1,0;0,0;3,0;row;1,0;False;True;False;1,46700000763;True;1,47000002861
AKB1996w;experiment;2017-02-01-10-27-01;9,0;45,0;100;2,0;3,0;1,0;0,0;row;0,0;True;False;True;0,766000032425;True;0,568000078201
AKB1996w;experiment;2017-02-01-10-27-01;9,0;46,0;100;2,0;0,0;3,0;1,0;row;0,0;True;False;True;0,766000032425;True;1,46300005913
AKB1996w;experiment;2017-02-01-10-27-01;9,0;47,0;100;3,0;0,0;1,0;2,0;row;1,0;False;True;False;1,16599988937;True;0,633999824524
AKB1996w;experiment;2017-02-01-10-27-01;9,0;48,0;100;1,0;2,0;3,0;0,0;row;1,0;False;False;False;1,16699981689;True;0,862999916077
AKB1996w;experiment;2017-02-01-10-27-01;10,0;1,0;-100;1,0;0,0;3,0;2,0;column;0,0;True;True;True;1,34899997711;True;1,19600009918
AKB1996w;experiment;2017-02-01-10-27-01;10,0;2,0;-100;3,0;1,0;2,0;0,0;column;1,0;False;True;False;0,74799990654;True;0,868000030518
AKB1996w;experiment;2017-02-01-10-27-01;10,0;3,0;-100;3,0;1,0;0,0;2,0;row;0,0;False;True;False;1,14899992943;True;1,26900005341
AKB1996w;experiment;2017-02-01-10-27-01;10,0;4,0;-100;2,0;3,0;0,0;1,0;row;0,0;True;False;True;0,78200006485;True;1,29600000381
AKB1996w;experiment;2017-02-01-10-27-01;10,0;5,0;-100;2,0;3,0;1,0;0,0;column;1,0;False;False;False;0,989000082016;True;1,06900000572
AKB1996w;experiment;2017-02-01-10-27-01;10,0;6,0;-100;1,0;0,0;2,0;3,0;column;1,0;True;False;True;1,19200015068;True;0,736000061035
AKB1996w;experiment;2017-02-01-10-27-01;10,0;7,0;-100;1,0;3,0;0,0;2,0;column;1,0;True;False;True;1,01699995995;True;1,46700000763
AKB1996w;experiment;2017-02-01-10-27-01;10,0;8,0;-100;0,0;2,0;1,0;3,0;column;0,0;False;True;False;1,01499986649;True;1,10300016403
AKB1996w;experiment;2017-02-01-10-27-01;10,0;9,0;-100;1,0;2,0;0,0;3,0;row;1,0;False;False;False;1,25;True;1,33599996567
AKB1996w;experiment;2017-02-01-10-27-01;10,0;10,0;-100;3,0;0,0;1,0;2,0;column;0,0;False;True;False;1,3149998188;True;0,536000013351
AKB1996w;experiment;2017-02-01-10-27-01;10,0;11,0;-100;1,0;3,0;2,0;0,0;column;0,0;False;False;False;0,947999954224;True;1,02600002289
AKB1996w;experiment;2017-02-01-10-27-01;10,0;12,0;-100;1,0;0,0;2,0;3,0;row;0,0;False;False;False;1,02300000191;True;0,736999988556
AKB1996w;experiment;2017-02-01-10-27-01;10,0;13,0;-100;1,0;2,0;3,0;0,0;row;1,0;False;True;False;0,817000150681;True;1,4960000515
AKB1996w;experiment;2017-02-01-10-27-01;10,0;14,0;-100;3,0;1,0;2,0;0,0;row;0,0;False;False;False;1,28400015831;True;1,16800022125
AKB1996w;experiment;2017-02-01-10-27-01;10,0;15,0;-100;2,0;1,0;0,0;3,0;row;1,0;True;True;True;1,11500000954;True;0,657999992371
AKB1996w;experiment;2017-02-01-10-27-01;10,0;16,0;-100;1,0;3,0;2,0;0,0;row;0,0;True;False;True;0,746999979019;True;0,830000162125
AKB1996w;experiment;2017-02-01-10-27-01;10,0;17,0;-100;3,0;1,0;0,0;2,0;column;0,0;False;False;False;1,68299984932;True;1,13899993896
AKB1996w;experiment;2017-02-01-10-27-01;10,0;18,0;-100;1,0;3,0;2,0;0,0;column;1,0;False;True;False;2,0490000248;True;0,637000083923
AKB1996w;experiment;2017-02-01-10-27-01;10,0;19,0;-100;1,0;0,0;2,0;3,0;column;0,0;False;False;False;0,817000150681;True;1,45800018311
AKB1996w;experiment;2017-02-01-10-27-01;10,0;20,0;-100;0,0;1,0;2,0;3,0;column;1,0;False;False;False;1,54800009727;True;1,00099992752
AKB1996w;experiment;2017-02-01-10-27-01;10,0;21,0;-100;2,0;3,0;0,0;1,0;row;1,0;False;False;False;1,34900021553;True;0,894000053406
AKB1996w;experiment;2017-02-01-10-27-01;10,0;22,0;-100;1,0;0,0;2,0;3,0;column;0,0;True;False;True;1,16599988937;True;0,893000125885
AKB1996w;experiment;2017-02-01-10-27-01;10,0;23,0;-100;2,0;3,0;0,0;1,0;row;1,0;True;True;True;0,914000034332;True;0,667999982834
AKB1996w;experiment;2017-02-01-10-27-01;10,0;24,0;-100;3,0;0,0;2,0;1,0;row;1,0;True;False;True;1,28399991989;True;0,730999946594
AKB1996w;experiment;2017-02-01-10-27-01;10,0;25,0;-100;1,0;0,0;3,0;2,0;row;1,0;False;False;False;1,28299999237;True;0,804000139236
AKB1996w;experiment;2017-02-01-10-27-01;10,0;26,0;-100;2,0;3,0;1,0;0,0;row;1,0;True;False;True;0,75;True;0,828999996185
AKB1996w;experiment;2017-02-01-10-27-01;10,0;27,0;-100;2,0;1,0;3,0;0,0;column;1,0;True;False;True;1,21700000763;True;1,03600001335
AKB1996w;experiment;2017-02-01-10-27-01;10,0;28,0;-100;1,0;0,0;3,0;2,0;column;0,0;False;True;False;0,915999889374;True;0,796999931335
AKB1996w;experiment;2017-02-01-10-27-01;10,0;29,0;-100;2,0;0,0;3,0;1,0;column;0,0;True;False;True;0,75;True;1,03200006485
AKB1996w;experiment;2017-02-01-10-27-01;10,0;30,0;-100;2,0;1,0;3,0;0,0;column;0,0;True;False;True;0,616999864578;True;0,670000076294
AKB1996w;experiment;2017-02-01-10-27-01;10,0;31,0;-100;1,0;3,0;2,0;0,0;column;0,0;True;False;True;0,782999992371;True;0,798000097275
AKB1996w;experiment;2017-02-01-10-27-01;10,0;32,0;-100;0,0;3,0;1,0;2,0;row;0,0;False;False;False;0,717000007629;True;0,996999979019
AKB1996w;experiment;2017-02-01-10-27-01;10,0;33,0;-100;0,0;2,0;1,0;3,0;row;0,0;True;False;True;1,11699986458;True;0,540000200272
AKB1996w;experiment;2017-02-01-10-27-01;10,0;34,0;-100;2,0;1,0;0,0;3,0;row;0,0;True;True;False;1,85100007057;False;0,930999994278
AKB1996w;experiment;2017-02-01-10-27-01;10,0;35,0;-100;3,0;0,0;1,0;2,0;row;1,0;False;False;False;1,18099999428;True;1,17100000381
AKB1996w;experiment;2017-02-01-10-27-01;10,0;36,0;-100;3,0;2,0;1,0;0,0;column;1,0;True;True;True;1,31599998474;True;0,661000013351
AKB1996w;experiment;2017-02-01-10-27-01;10,0;37,0;-100;2,0;0,0;3,0;1,0;column;0,0;False;False;False;0,982000112534;True;1,03600001335
AKB1996w;experiment;2017-02-01-10-27-01;10,0;38,0;-100;0,0;1,0;2,0;3,0;row;1,0;False;True;False;1,48200011253;True;0,640000104904
AKB1996w;experiment;2017-02-01-10-27-01;10,0;39,0;-100;2,0;1,0;3,0;0,0;row;1,0;False;True;False;0,982999801636;True;1,09600019455
AKB1996w;experiment;2017-02-01-10-27-01;10,0;40,0;-100;3,0;2,0;0,0;1,0;row;1,0;True;False;True;0,992000102997;True;0,994999885559
AKB1996w;experiment;2017-02-01-10-27-01;10,0;41,0;-100;0,0;1,0;2,0;3,0;column;0,0;False;True;False;1,08299994469;True;1,50300002098
AKB1996w;experiment;2017-02-01-10-27-01;10,0;42,0;-100;3,0;2,0;0,0;1,0;column;0,0;False;False;False;1,34000015259;True;0,969999790192
AKB1996w;experiment;2017-02-01-10-27-01;10,0;43,0;-100;2,0;1,0;0,0;3,0;column;1,0;False;True;False;1,78200006485;True;1,40100002289
AKB1996w;experiment;2017-02-01-10-27-01;10,0;44,0;-100;0,0;2,0;3,0;1,0;row;0,0;True;False;True;0,983000040054;True;1,46099996567
AKB1996w;experiment;2017-02-01-10-27-01;10,0;45,0;-100;2,0;1,0;3,0;0,0;row;1,0;True;True;True;0,948999881744;True;1,09899997711
AKB1996w;experiment;2017-02-01-10-27-01;10,0;46,0;-100;1,0;2,0;3,0;0,0;row;0,0;True;True;True;1,43400001526;True;0,563999891281
AKB1996w;experiment;2017-02-01-10-27-01;10,0;47,0;-100;0,0;1,0;3,0;2,0;column;1,0;True;True;True;1,31599998474;True;0,727999925613
AKB1996w;experiment;2017-02-01-10-27-01;10,0;48,0;-100;1,0;3,0;0,0;2,0;row;1,0;True;True;True;0,814999818802;True;0,636000156403
AKB1996w;experiment;2017-02-01-10-27-01;11,0;1,0;100;1,0;3,0;2,0;0,0;column;0,0;False;False;False;1,46600008011;True;1,03600001335
AKB1996w;experiment;2017-02-01-10-27-01;11,0;2,0;100;3,0;1,0;2,0;0,0;column;0,0;False;True;False;0,900000095367;True;0,736999988556
AKB1996w;experiment;2017-02-01-10-27-01;11,0;3,0;100;0,0;1,0;3,0;2,0;column;1,0;True;True;True;1,23399996758;True;1,4319999218
AKB1996w;experiment;2017-02-01-10-27-01;11,0;4,0;100;3,0;1,0;2,0;0,0;column;1,0;False;False;False;1,23300004005;True;0,700999975204
AKB1996w;experiment;2017-02-01-10-27-01;11,0;5,0;100;3,0;2,0;0,0;1,0;column;1,0;True;False;True;1,03299999237;True;1,36699986458
AKB1996w;experiment;2017-02-01-10-27-01;11,0;6,0;100;1,0;2,0;3,0;0,0;column;0,0;True;False;True;0,901000022888;True;0,629999876022
AKB1996w;experiment;2017-02-01-10-27-01;11,0;7,0;100;1,0;0,0;2,0;3,0;row;1,0;False;False;False;1,03200006485;True;1,20300006866
AKB1996w;experiment;2017-02-01-10-27-01;11,0;8,0;100;0,0;2,0;3,0;1,0;column;1,0;False;False;False;0,799999952316;True;0,803999900818
AKB1996w;experiment;2017-02-01-10-27-01;11,0;9,0;100;3,0;0,0;2,0;1,0;column;0,0;True;False;True;0,899000167847;True;0,828999996185
AKB1996w;experiment;2017-02-01-10-27-01;11,0;10,0;100;3,0;0,0;1,0;2,0;column;1,0;True;True;True;1,09800004959;True;0,526999950409
AKB1996w;experiment;2017-02-01-10-27-01;11,0;11,0;100;3,0;2,0;1,0;0,0;row;1,0;False;True;False;1,13300013542;True;1,13499999046
AKB1996w;experiment;2017-02-01-10-27-01;11,0;12,0;100;1,0;2,0;0,0;3,0;column;1,0;True;True;True;0,967000007629;True;0,894999980927
AKB1996w;experiment;2017-02-01-10-27-01;11,0;13,0;100;2,0;1,0;0,0;3,0;row;1,0;True;False;False;0,932999849319;False;0,730999946594
AKB1996w;experiment;2017-02-01-10-27-01;11,0;14,0;100;1,0;2,0;3,0;0,0;row;1,0;True;True;True;1,33100008965;True;1,0640001297
AKB1996w;experiment;2017-02-01-10-27-01;11,0;15,0;100;3,0;2,0;0,0;1,0;row;1,0;False;True;False;1,40000009537;True;1,4359998703
AKB1996w;experiment;2017-02-01-10-27-01;11,0;16,0;100;1,0;2,0;3,0;0,0;column;1,0;True;True;True;2,06699991226;True;1,40100002289
AKB1996w;experiment;2017-02-01-10-27-01;11,0;17,0;100;1,0;3,0;0,0;2,0;column;1,0;False;False;False;1,13400006294;True;1,29699993134
AKB1996w;experiment;2017-02-01-10-27-01;11,0;18,0;100;0,0;1,0;2,0;3,0;row;1,0;True;False;False;1,53299999237;False;0,837000131607
AKB1996w;experiment;2017-02-01-10-27-01;11,0;19,0;100;2,0;0,0;3,0;1,0;column;1,0;False;True;False;1,46700000763;True;1,13500022888
AKB1996w;experiment;2017-02-01-10-27-01;11,0;20,0;100;2,0;3,0;0,0;1,0;column;0,0;False;True;False;0,832999944687;True;0,836999893188
AKB1996w;experiment;2017-02-01-10-27-01;11,0;21,0;100;2,0;1,0;3,0;0,0;column;0,0;False;True;False;1,73400020599;True;1,32800006866
AKB1996w;experiment;2017-02-01-10-27-01;11,0;22,0;100;3,0;0,0;2,0;1,0;row;1,0;True;False;True;1,46599984169;True;0,701999902725
AKB1996w;experiment;2017-02-01-10-27-01;11,0;23,0;100;2,0;1,0;0,0;3,0;column;0,0;True;False;True;1,03399991989;True;0,532999992371
AKB1996w;experiment;2017-02-01-10-27-01;11,0;24,0;100;0,0;2,0;3,0;1,0;row;1,0;False;False;False;1,90000009537;True;1,46099996567
AKB1996w;experiment;2017-02-01-10-27-01;11,0;25,0;100;0,0;3,0;1,0;2,0;row;1,0;False;False;False;0,900000095367;True;1,33099985123
AKB1996w;experiment;2017-02-01-10-27-01;11,0;26,0;100;2,0;0,0;1,0;3,0;row;0,0;True;True;True;0,967000007629;True;0,694999933243
AKB1996w;experiment;2017-02-01-10-27-01;11,0;27,0;100;1,0;0,0;3,0;2,0;row;0,0;True;False;True;1,0;True;1,03600001335
AKB1996w;experiment;2017-02-01-10-27-01;11,0;28,0;100;2,0;0,0;1,0;3,0;row;1,0;True;True;False;1,23099994659;False;1,49499988556
AKB1996w;experiment;2017-02-01-10-27-01;11,0;29,0;100;1,0;3,0;2,0;0,0;row;0,0;True;True;True;0,733000040054;True;0,763000011444
AKB1996w;experiment;2017-02-01-10-27-01;11,0;30,0;100;1,0;2,0;0,0;3,0;row;0,0;False;True;False;1,19799995422;True;0,569999933243
AKB1996w;experiment;2017-02-01-10-27-01;11,0;31,0;100;2,0;1,0;0,0;3,0;row;0,0;False;True;False;1,30000019073;True;1,40100002289
AKB1996w;experiment;2017-02-01-10-27-01;11,0;32,0;100;0,0;2,0;1,0;3,0;row;0,0;False;True;False;1,16700005531;True;1,00400018692
AKB1996w;experiment;2017-02-01-10-27-01;11,0;33,0;100;0,0;3,0;2,0;1,0;row;1,0;False;True;False;1,26699995995;True;0,802000045776
AKB1996w;experiment;2017-02-01-10-27-01;11,0;34,0;100;3,0;0,0;1,0;2,0;column;1,0;False;False;False;1,03400015831;True;1,10599994659
AKB1996w;experiment;2017-02-01-10-27-01;11,0;35,0;100;3,0;0,0;2,0;1,0;row;0,0;True;False;True;1,10000014305;True;0,771999835968
AKB1996w;experiment;2017-02-01-10-27-01;11,0;36,0;100;0,0;3,0;2,0;1,0;column;1,0;False;True;False;2,16699981689;True;1,23600006104
AKB1996w;experiment;2017-02-01-10-27-01;11,0;37,0;100;1,0;0,0;3,0;2,0;row;0,0;False;False;False;1,59999990463;True;1,49400019646
AKB1996w;experiment;2017-02-01-10-27-01;11,0;38,0;100;0,0;1,0;2,0;3,0;column;0,0;True;False;True;1,09899997711;True;0,601999998093
AKB1996w;experiment;2017-02-01-10-27-01;11,0;39,0;100;1,0;0,0;2,0;3,0;row;0,0;False;True;False;1,40000009537;True;0,572000026703
AKB1996w;experiment;2017-02-01-10-27-01;11,0;40,0;100;2,0;1,0;3,0;0,0;column;1,0;False;False;False;1,03299999237;True;1,2380001545
AKB1996w;experiment;2017-02-01-10-27-01;11,0;41,0;100;0,0;2,0;1,0;3,0;row;0,0;True;True;True;1,20000004768;True;1,05999994278
AKB1996w;experiment;2017-02-01-10-27-01;11,0;42,0;100;0,0;3,0;2,0;1,0;column;0,0;True;True;True;1,20000004768;True;0,736000061035
AKB1996w;experiment;2017-02-01-10-27-01;11,0;43,0;100;1,0;3,0;0,0;2,0;row;0,0;False;False;False;0,766999959946;True;0,634999990463
AKB1996w;experiment;2017-02-01-10-27-01;11,0;44,0;100;0,0;1,0;2,0;3,0;row;0,0;True;True;True;0,899999856949;True;1,19400000572
AKB1996w;experiment;2017-02-01-10-27-01;11,0;45,0;100;1,0;3,0;2,0;0,0;column;1,0;True;True;True;1,10000014305;True;1,3679997921
AKB1996w;experiment;2017-02-01-10-27-01;11,0;46,0;100;1,0;0,0;3,0;2,0;column;0,0;False;True;False;1,132999897;True;1,36699986458
AKB1996w;experiment;2017-02-01-10-27-01;11,0;47,0;100;1,0;0,0;3,0;2,0;row;1,0;True;True;True;0,833999872208;True;1,10199999809
AKB1996w;experiment;2017-02-01-10-27-01;11,0;48,0;100;0,0;1,0;2,0;3,0;column;1,0;False;False;False;1,96499991417;True;1,26300001144
AKB1996w;experiment;2017-02-01-10-27-01;12,0;1,0;1000;1,0;0,0;3,0;2,0;row;0,0;False;True;False;2,83299994469;True;0,858000040054
AKB1996w;experiment;2017-02-01-10-27-01;12,0;2,0;1000;1,0;0,0;3,0;2,0;column;1,0;True;False;True;1,46300005913;True;1,16100001335
AKB1996w;experiment;2017-02-01-10-27-01;12,0;3,0;1000;3,0;0,0;1,0;2,0;column;0,0;True;True;True;0,799999952316;True;0,93700003624
AKB1996w;experiment;2017-02-01-10-27-01;12,0;4,0;1000;0,0;2,0;1,0;3,0;row;0,0;False;True;False;1,53200006485;True;1,50099992752
AKB1996w;experiment;2017-02-01-10-27-01;12,0;5,0;1000;0,0;2,0;3,0;1,0;row;0,0;False;True;False;1,59999990463;True;0,792999982834
AKB1996w;experiment;2017-02-01-10-27-01;12,0;6,0;1000;3,0;0,0;2,0;1,0;column;1,0;True;True;True;1,96500015259;True;0,535999774933
AKB1996w;experiment;2017-02-01-10-27-01;12,0;7,0;1000;3,0;1,0;2,0;0,0;row;1,0;False;False;False;1,33200001717;True;1,50300002098
AKB1996w;experiment;2017-02-01-10-27-01;12,0;8,0;1000;1,0;3,0;0,0;2,0;column;1,0;True;True;False;1,2990000248;False;1,33500003815
AKB1996w;experiment;2017-02-01-10-27-01;12,0;9,0;1000;0,0;3,0;1,0;2,0;row;1,0;False;False;False;2,46600008011;True;0,801000118256
AKB1996w;experiment;2017-02-01-10-27-01;12,0;10,0;1000;0,0;2,0;3,0;1,0;column;0,0;False;False;False;0,967000007629;True;1,49300003052
AKB1996w;experiment;2017-02-01-10-27-01;12,0;11,0;1000;0,0;2,0;1,0;3,0;row;1,0;True;False;False;1,30099987984;False;0,90499997139
AKB1996w;experiment;2017-02-01-10-27-01;12,0;12,0;1000;0,0;3,0;2,0;1,0;row;1,0;True;True;True;1,36400008202;True;0,770000219345
AKB1996w;experiment;2017-02-01-10-27-01;12,0;13,0;1000;0,0;3,0;1,0;2,0;column;0,0;True;True;False;1,23300004005;False;1,00099992752
AKB1996w;experiment;2017-02-01-10-27-01;12,0;14,0;1000;2,0;1,0;0,0;3,0;row;1,0;True;True;False;1,49699997902;False;0,763999938965
AKB1996w;experiment;2017-02-01-10-27-01;12,0;15,0;1000;2,0;1,0;0,0;3,0;column;1,0;False;False;False;2,10000014305;True;1,09300017357
AKB1996w;experiment;2017-02-01-10-27-01;12,0;16,0;1000;0,0;1,0;2,0;3,0;column;0,0;True;True;False;0,797999858856;False;0,564999818802
AKB1996w;experiment;2017-02-01-10-27-01;12,0;17,0;1000;3,0;2,0;0,0;1,0;column;0,0;False;False;False;1,33200001717;True;1,16599988937
AKB1996w;experiment;2017-02-01-10-27-01;12,0;18,0;1000;0,0;1,0;2,0;3,0;column;1,0;True;False;True;1,29999995232;True;1,13400006294
AKB1996w;experiment;2017-02-01-10-27-01;12,0;19,0;1000;2,0;1,0;3,0;0,0;column;1,0;True;False;True;1,33399987221;True;1,3679997921
AKB1996w;experiment;2017-02-01-10-27-01;12,0;20,0;1000;3,0;1,0;2,0;0,0;column;1,0;True;True;False;1,93400001526;False;0,766000032425
AKB1996w;experiment;2017-02-01-10-27-01;12,0;21,0;1000;0,0;1,0;2,0;3,0;row;1,0;False;True;False;2,367000103;True;0,536000013351
AKB1996w;experiment;2017-02-01-10-27-01;12,0;22,0;1000;3,0;0,0;1,0;2,0;column;1,0;False;False;False;1,09999990463;True;1,25500011444
AKB1996w;experiment;2017-02-01-10-27-01;12,0;23,0;1000;1,0;2,0;0,0;3,0;row;1,0;False;True;False;1,36599993706;True;0,700000047684
AKB1996w;experiment;2017-02-01-10-27-01;12,0;24,0;1000;2,0;3,0;1,0;0,0;row;0,0;True;True;False;1,867000103;False;1,17199993134
AKB1996w;experiment;2017-02-01-10-27-01;12,0;25,0;1000;2,0;1,0;0,0;3,0;column;0,0;False;False;False;1,93400001526;True;1,49800014496
AKB1996w;experiment;2017-02-01-10-27-01;12,0;26,0;1000;1,0;2,0;3,0;0,0;column;0,0;False;True;False;1,59999990463;True;1,29999995232
AKB1996w;experiment;2017-02-01-10-27-01;12,0;27,0;1000;2,0;1,0;3,0;0,0;row;0,0;True;True;True;1,632999897;True;1,17199993134
AKB1996w;experiment;2017-02-01-10-27-01;12,0;28,0;1000;3,0;1,0;0,0;2,0;column;0,0;False;False;False;1,73299980164;True;0,538000106812
AKB1996w;experiment;2017-02-01-10-27-01;12,0;29,0;1000;0,0;1,0;2,0;3,0;column;1,0;False;True;False;1,56699991226;True;1,40199995041
AKB1996w;experiment;2017-02-01-10-27-01;12,0;30,0;1000;1,0;2,0;0,0;3,0;column;1,0;True;False;True;3,29999995232;True;1,36599993706
AKB1996w;experiment;2017-02-01-10-27-01;12,0;31,0;1000;3,0;1,0;2,0;0,0;column;0,0;True;True;True;2,46600008011;True;0,634000062943
AKB1996w;experiment;2017-02-01-10-27-01;12,0;32,0;1000;3,0;1,0;0,0;2,0;row;0,0;False;True;False;1,66400003433;True;0,933000087738
AKB1996w;experiment;2017-02-01-10-27-01;12,0;33,0;1000;1,0;3,0;2,0;0,0;row;1,0;False;False;False;1,79999995232;True;0,828999996185
AKB1996w;experiment;2017-02-01-10-27-01;12,0;34,0;1000;1,0;0,0;3,0;2,0;row;1,0;True;False;True;1,66700005531;True;1,16300010681
AKB1996w;experiment;2017-02-01-10-27-01;12,0;35,0;1000;2,0;0,0;3,0;1,0;row;0,0;False;True;False;0,964999914169;True;0,863000154495
AKB1996w;experiment;2017-02-01-10-27-01;12,0;36,0;1000;3,0;1,0;2,0;0,0;row;0,0;True;False;True;1,90100002289;True;0,799000024796
AKB1996w;experiment;2017-02-01-10-27-01;12,0;37,0;1000;3,0;0,0;1,0;2,0;column;1,0;True;False;True;1,83299994469;True;1,2610001564
AKB1996w;experiment;2017-02-01-10-27-01;12,0;38,0;1000;0,0;3,0;2,0;1,0;row;0,0;False;False;False;1,03400015831;True;0,969000101089
AKB1996w;experiment;2017-02-01-10-27-01;12,0;39,0;1000;3,0;0,0;2,0;1,0;row;1,0;False;False;False;1,5;True;0,540000200272
AKB1996w;experiment;2017-02-01-10-27-01;12,0;40,0;1000;3,0;2,0;1,0;0,0;column;1,0;True;False;True;3,53200006485;True;0,799999952316
AKB1996w;experiment;2017-02-01-10-27-01;12,0;41,0;1000;0,0;1,0;3,0;2,0;column;0,0;False;True;False;1,36600017548;True;1,08599996567
AKB1996w;experiment;2017-02-01-10-27-01;12,0;42,0;1000;1,0;0,0;2,0;3,0;row;0,0;True;True;True;1,96599984169;True;0,96799993515
AKB1996w;experiment;2017-02-01-10-27-01;12,0;43,0;1000;2,0;0,0;3,0;1,0;row;1,0;False;True;False;1,26599979401;True;0,568000078201
AKB1996w;experiment;2017-02-01-10-27-01;12,0;44,0;1000;0,0;3,0;1,0;2,0;row;0,0;True;False;True;1,39999985695;True;1,46599984169
AKB1996w;experiment;2017-02-01-10-27-01;12,0;45,0;1000;3,0;1,0;2,0;0,0;row;0,0;False;True;False;1,09999990463;True;0,998999834061
AKB1996w;experiment;2017-02-01-10-27-01;12,0;46,0;1000;2,0;1,0;0,0;3,0;column;1,0;True;False;True;1,40000009537;True;0,599999904633
AKB1996w;experiment;2017-02-01-10-27-01;12,0;47,0;1000;3,0;2,0;1,0;0,0;row;1,0;False;True;False;1,03299999237;True;1,03699994087
AKB1996w;experiment;2017-02-01-10-27-01;12,0;48,0;1000;0,0;2,0;1,0;3,0;column;0,0;False;True;False;1,46700000763;True;1,39999985695
