Observer;Condition;SessionID;Block;Trial;COA;Color0;Color1;Color2;Color3;Target;Which;Match;FlipComplimentary;Response;RT;Correct;OnsetDelay
ARF1995w;game;2017-02-22-14-01-56;1,0;1,0;-100;1,0;2,0;0,0;3,0;row;1,0;True;True;False;1,91600012779;False;0,701999902725
ARF1995w;game;2017-02-22-14-01-56;1,0;2,0;-100;2,0;0,0;3,0;1,0;column;1,0;False;True;False;2,58200001717;True;1,13100004196
ARF1995w;game;2017-02-22-14-01-56;1,0;3,0;-100;0,0;1,0;2,0;3,0;row;1,0;False;True;False;2,44599986076;True;0,898999929428
ARF1995w;game;2017-02-22-14-01-56;1,0;4,0;-100;1,0;2,0;3,0;0,0;column;0,0;True;False;True;2,0490000248;True;1,16700005531
ARF1995w;game;2017-02-22-14-01-56;1,0;5,0;-100;1,0;3,0;2,0;0,0;column;1,0;True;False;True;1,91600012779;True;0,601000070572
ARF1995w;game;2017-02-22-14-01-56;1,0;6,0;-100;2,0;0,0;1,0;3,0;column;0,0;True;False;False;2,08300018311;False;1,46099996567
ARF1995w;game;2017-02-22-14-01-56;1,0;7,0;-100;3,0;2,0;1,0;0,0;column;0,0;True;True;True;1,98300004005;True;0,726999998093
ARF1995w;game;2017-02-22-14-01-56;1,0;8,0;-100;2,0;0,0;3,0;1,0;row;0,0;True;False;False;3,44799995422;False;1,34200000763
ARF1995w;game;2017-02-22-14-01-56;1,0;9,0;-100;2,0;1,0;0,0;3,0;row;0,0;False;True;True;0,849999904633;False;0,934000015259
ARF1995w;game;2017-02-22-14-01-56;1,0;10,0;-100;3,0;2,0;0,0;1,0;column;1,0;True;True;False;1,58400011063;False;1,25600004196
ARF1995w;game;2017-02-22-14-01-56;1,0;11,0;-100;1,0;2,0;3,0;0,0;row;0,0;False;False;False;2,75;True;0,664000034332
ARF1995w;game;2017-02-22-14-01-56;1,0;12,0;-100;0,0;3,0;1,0;2,0;row;0,0;False;False;True;1,58400011063;False;1,13199996948
ARF1995w;game;2017-02-22-14-01-56;1,0;13,0;-100;2,0;3,0;1,0;0,0;column;1,0;True;True;True;2,04999995232;True;0,726000070572
ARF1995w;game;2017-02-22-14-01-56;1,0;14,0;-100;3,0;1,0;0,0;2,0;row;0,0;True;True;True;2,11500000954;True;0,832000017166
ARF1995w;game;2017-02-22-14-01-56;1,0;15,0;-100;0,0;2,0;1,0;3,0;column;1,0;False;False;False;2,91699981689;True;0,770999908447
ARF1995w;game;2017-02-22-14-01-56;1,0;16,0;-100;3,0;1,0;2,0;0,0;column;0,0;True;False;True;2,11800003052;True;1,40199995041
ARF1995w;game;2017-02-22-14-01-56;1,0;17,0;-100;2,0;3,0;1,0;0,0;column;0,0;False;True;False;3,04999995232;True;1,3599998951
ARF1995w;game;2017-02-22-14-01-56;1,0;18,0;-100;1,0;3,0;0,0;2,0;column;0,0;True;False;True;2,25099992752;True;0,667999982834
ARF1995w;game;2017-02-22-14-01-56;1,0;19,0;-100;0,0;1,0;2,0;3,0;row;0,0;True;True;False;2,18400001526;False;0,700000047684
ARF1995w;game;2017-02-22-14-01-56;1,0;20,0;-100;0,0;1,0;3,0;2,0;column;1,0;False;True;True;3,08099985123;False;1,07100009918
ARF1995w;game;2017-02-22-14-01-56;1,0;21,0;-100;1,0;2,0;0,0;3,0;row;0,0;False;False;True;1,28099989891;False;1,27099990845
ARF1995w;game;2017-02-22-14-01-56;1,0;22,0;-100;2,0;1,0;0,0;3,0;row;0,0;True;False;True;1,45000004768;True;1,33699989319
ARF1995w;game;2017-02-22-14-01-56;1,0;23,0;-100;2,0;3,0;1,0;0,0;column;0,0;True;False;True;2,08400011063;True;0,528000116348
ARF1995w;game;2017-02-22-14-01-56;1,0;24,0;-100;1,0;0,0;2,0;3,0;row;0,0;True;True;False;2,08200001717;False;0,960999965668
ARF1995w;game;2017-02-22-14-01-56;1,0;25,0;-100;0,0;2,0;3,0;1,0;row;0,0;True;True;True;1,14899992943;True;1,03600001335
ARF1995w;game;2017-02-22-14-01-56;1,0;26,0;-100;2,0;3,0;1,0;0,0;column;1,0;False;True;False;2,44799995422;True;1,30800008774
ARF1995w;game;2017-02-22-14-01-56;1,0;27,0;-100;2,0;1,0;3,0;0,0;column;0,0;True;False;True;2,14800000191;True;1,23199987411
ARF1995w;game;2017-02-22-14-01-56;1,0;28,0;-100;2,0;1,0;0,0;3,0;column;0,0;True;False;True;2,04799985886;True;0,526000022888
ARF1995w;game;2017-02-22-14-01-56;1,0;29,0;-100;3,0;0,0;1,0;2,0;column;1,0;True;False;False;3,94899988174;False;1,19400000572
ARF1995w;game;2017-02-22-14-01-56;1,0;30,0;-100;1,0;3,0;2,0;0,0;column;0,0;True;False;True;1,48399996758;True;1,367000103
ARF1995w;game;2017-02-22-14-01-56;1,0;31,0;-100;3,0;2,0;0,0;1,0;row;0,0;True;False;True;1,45000004768;True;1,39700007439
ARF1995w;game;2017-02-22-14-01-56;1,0;32,0;-100;1,0;3,0;2,0;0,0;row;1,0;False;True;True;2,58399987221;False;0,572000026703
ARF1995w;game;2017-02-22-14-01-56;1,0;33,0;-100;0,0;2,0;1,0;3,0;column;0,0;True;False;True;1,81700015068;True;0,963999986649
ARF1995w;game;2017-02-22-14-01-56;1,0;34,0;-100;1,0;2,0;0,0;3,0;column;0,0;False;False;False;3,01700019836;True;1,0759999752
ARF1995w;game;2017-02-22-14-01-56;1,0;35,0;-100;0,0;1,0;3,0;2,0;row;1,0;True;True;True;2,61599993706;True;0,970999956131
ARF1995w;game;2017-02-22-14-01-56;1,0;36,0;-100;3,0;2,0;0,0;1,0;row;1,0;False;False;True;2,05000019073;False;0,530999898911
ARF1995w;game;2017-02-22-14-01-56;1,0;37,0;-100;2,0;1,0;3,0;0,0;row;0,0;False;True;False;1,28100013733;True;0,933000087738
ARF1995w;game;2017-02-22-14-01-56;1,0;38,0;-100;3,0;1,0;0,0;2,0;row;0,0;False;False;True;1,28299999237;False;1,05900001526
ARF1995w;game;2017-02-22-14-01-56;1,0;39,0;-100;3,0;0,0;2,0;1,0;column;1,0;True;False;True;2,05100011826;True;0,800999879837
ARF1995w;game;2017-02-22-14-01-56;1,0;40,0;-100;2,0;1,0;0,0;3,0;column;0,0;False;True;True;2,18399977684;False;1,19400000572
ARF1995w;game;2017-02-22-14-01-56;1,0;41,0;-100;1,0;3,0;0,0;2,0;column;1,0;False;False;False;2,21700000763;True;0,832000017166
ARF1995w;game;2017-02-22-14-01-56;1,0;42,0;-100;0,0;2,0;3,0;1,0;column;1,0;False;True;False;3,41700005531;True;0,828999996185
ARF1995w;game;2017-02-22-14-01-56;1,0;43,0;-100;0,0;1,0;3,0;2,0;column;0,0;False;False;False;4,35000014305;True;1,39199995995
ARF1995w;game;2017-02-22-14-01-56;1,0;44,0;-100;0,0;1,0;2,0;3,0;column;1,0;True;True;True;3,51600003242;True;1,29299998283
ARF1995w;game;2017-02-22-14-01-56;1,0;45,0;-100;0,0;1,0;3,0;2,0;column;1,0;True;True;True;2,18400001526;True;0,962000131607
ARF1995w;game;2017-02-22-14-01-56;1,0;46,0;-100;2,0;3,0;1,0;0,0;row;1,0;True;False;True;1,18400001526;True;1,03100013733
ARF1995w;game;2017-02-22-14-01-56;1,0;47,0;-100;3,0;1,0;0,0;2,0;column;1,0;True;False;True;2,71700000763;True;1,50100016594
ARF1995w;game;2017-02-22-14-01-56;1,0;48,0;-100;2,0;0,0;1,0;3,0;row;1,0;False;True;False;2,55100011826;True;1,46499991417
ARF1995w;game;2017-02-22-14-01-56;2,0;1,0;100;2,0;1,0;0,0;3,0;row;1,0;True;True;True;1,132999897;True;1,30800008774
ARF1995w;game;2017-02-22-14-01-56;2,0;2,0;100;1,0;0,0;3,0;2,0;row;0,0;True;True;True;1,13300013542;True;0,793000221252
ARF1995w;game;2017-02-22-14-01-56;2,0;3,0;100;1,0;3,0;0,0;2,0;row;1,0;True;False;True;1,10000014305;True;1,33200001717
ARF1995w;game;2017-02-22-14-01-56;2,0;4,0;100;3,0;2,0;1,0;0,0;row;1,0;True;False;False;1,66600012779;False;1,40100002289
ARF1995w;game;2017-02-22-14-01-56;2,0;5,0;100;1,0;2,0;0,0;3,0;row;1,0;False;True;False;1,60000014305;True;0,762000083923
ARF1995w;game;2017-02-22-14-01-56;2,0;6,0;100;2,0;1,0;3,0;0,0;column;0,0;True;False;True;2,33400011063;True;0,733000040054
ARF1995w;game;2017-02-22-14-01-56;2,0;7,0;100;2,0;0,0;3,0;1,0;row;1,0;True;False;True;1,83400011063;True;0,721999883652
ARF1995w;game;2017-02-22-14-01-56;2,0;8,0;100;1,0;2,0;3,0;0,0;column;1,0;True;True;False;1,39999985695;False;0,600000143051
ARF1995w;game;2017-02-22-14-01-56;2,0;9,0;100;1,0;0,0;2,0;3,0;column;1,0;True;False;True;1,83399987221;True;0,5640001297
ARF1995w;game;2017-02-22-14-01-56;2,0;10,0;100;0,0;2,0;3,0;1,0;column;0,0;False;True;True;1,76699995995;False;0,698999881744
ARF1995w;game;2017-02-22-14-01-56;2,0;11,0;100;2,0;1,0;3,0;0,0;row;0,0;False;True;False;1,23199987411;True;1,16599988937
ARF1995w;game;2017-02-22-14-01-56;2,0;12,0;100;3,0;0,0;2,0;1,0;column;1,0;False;True;False;2,12999987602;True;0,696000099182
ARF1995w;game;2017-02-22-14-01-56;2,0;13,0;100;0,0;3,0;1,0;2,0;row;0,0;True;False;True;0,967000007629;True;1,22400021553
ARF1995w;game;2017-02-22-14-01-56;2,0;14,0;100;2,0;0,0;3,0;1,0;row;0,0;True;False;True;1,03299999237;True;1,2349998951
ARF1995w;game;2017-02-22-14-01-56;2,0;15,0;100;1,0;3,0;2,0;0,0;column;1,0;True;False;True;1,66600012779;True;1,02799987793
ARF1995w;game;2017-02-22-14-01-56;2,0;16,0;100;3,0;0,0;2,0;1,0;column;0,0;True;True;False;2,33400011063;False;1,13499999046
ARF1995w;game;2017-02-22-14-01-56;2,0;17,0;100;0,0;1,0;2,0;3,0;row;0,0;False;False;False;3,13400006294;True;0,934000015259
ARF1995w;game;2017-02-22-14-01-56;2,0;18,0;100;1,0;2,0;3,0;0,0;column;0,0;False;False;False;4,03299999237;True;0,763999938965
ARF1995w;game;2017-02-22-14-01-56;2,0;19,0;100;1,0;2,0;3,0;0,0;column;1,0;False;True;True;1,06699991226;False;0,836999893188
ARF1995w;game;2017-02-22-14-01-56;2,0;20,0;100;1,0;2,0;3,0;0,0;row;1,0;False;True;True;2,632999897;False;1,0649998188
ARF1995w;game;2017-02-22-14-01-56;2,0;21,0;100;3,0;2,0;0,0;1,0;column;1,0;True;True;False;2,46700000763;False;0,929000139236
ARF1995w;game;2017-02-22-14-01-56;2,0;22,0;100;0,0;2,0;1,0;3,0;row;0,0;False;False;False;2,29999995232;True;1,16900014877
ARF1995w;game;2017-02-22-14-01-56;2,0;23,0;100;2,0;3,0;0,0;1,0;row;1,0;False;False;False;1,96700000763;True;0,664999961853
ARF1995w;game;2017-02-22-14-01-56;2,0;24,0;100;2,0;3,0;0,0;1,0;column;1,0;False;False;False;2,83100008965;True;0,657999992371
ARF1995w;game;2017-02-22-14-01-56;2,0;25,0;100;0,0;1,0;2,0;3,0;column;1,0;False;False;False;1,867000103;True;0,759999990463
ARF1995w;game;2017-02-22-14-01-56;2,0;26,0;100;0,0;3,0;1,0;2,0;column;1,0;False;False;False;2,16700005531;True;0,830000162125
ARF1995w;game;2017-02-22-14-01-56;2,0;27,0;100;3,0;1,0;2,0;0,0;column;0,0;False;False;False;2,76699995995;True;1,29699993134
ARF1995w;game;2017-02-22-14-01-56;2,0;28,0;100;1,0;0,0;3,0;2,0;column;0,0;True;True;False;2,89999985695;False;1,42899990082
ARF1995w;game;2017-02-22-14-01-56;2,0;29,0;100;0,0;2,0;1,0;3,0;column;0,0;False;True;False;2,63499999046;True;1,23000001907
ARF1995w;game;2017-02-22-14-01-56;2,0;30,0;100;0,0;1,0;3,0;2,0;column;1,0;False;False;False;2,73299980164;True;0,793999910355
ARF1995w;game;2017-02-22-14-01-56;2,0;31,0;100;3,0;2,0;0,0;1,0;row;1,0;False;False;False;1,90000009537;True;0,900000095367
ARF1995w;game;2017-02-22-14-01-56;2,0;32,0;100;0,0;2,0;1,0;3,0;column;0,0;True;True;False;1,86600017548;False;0,760999917984
ARF1995w;game;2017-02-22-14-01-56;2,0;33,0;100;0,0;2,0;3,0;1,0;row;0,0;False;True;False;3,06699991226;True;0,93700003624
ARF1995w;game;2017-02-22-14-01-56;2,0;34,0;100;0,0;3,0;2,0;1,0;row;1,0;False;False;False;2,60000014305;True;0,927999973297
ARF1995w;game;2017-02-22-14-01-56;2,0;35,0;100;0,0;1,0;2,0;3,0;column;1,0;True;True;True;3,66600012779;True;0,891000032425
ARF1995w;game;2017-02-22-14-01-56;2,0;36,0;100;2,0;3,0;0,0;1,0;row;1,0;True;True;True;1,83299994469;True;0,535000085831
ARF1995w;game;2017-02-22-14-01-56;2,0;37,0;100;3,0;2,0;0,0;1,0;row;0,0;True;True;False;2,03299999237;False;0,861000061035
ARF1995w;game;2017-02-22-14-01-56;2,0;38,0;100;3,0;1,0;0,0;2,0;row;0,0;False;False;False;0,967000007629;True;1,22900009155
ARF1995w;game;2017-02-22-14-01-56;2,0;39,0;100;1,0;0,0;3,0;2,0;column;1,0;False;False;False;1,76699995995;True;0,534999847412
ARF1995w;game;2017-02-22-14-01-56;2,0;40,0;100;3,0;0,0;1,0;2,0;column;1,0;True;True;True;1,79999995232;True;1,09000015259
ARF1995w;game;2017-02-22-14-01-56;2,0;41,0;100;1,0;2,0;3,0;0,0;row;0,0;True;False;True;1,66600012779;True;0,625999927521
ARF1995w;game;2017-02-22-14-01-56;2,0;42,0;100;2,0;3,0;1,0;0,0;column;1,0;True;True;True;1,93400001526;True;0,870000123978
ARF1995w;game;2017-02-22-14-01-56;2,0;43,0;100;1,0;0,0;2,0;3,0;column;0,0;False;True;False;1,73299980164;True;0,796000003815
ARF1995w;game;2017-02-22-14-01-56;2,0;44,0;100;2,0;3,0;0,0;1,0;row;0,0;False;False;False;1,70000004768;True;1,39899992943
ARF1995w;game;2017-02-22-14-01-56;2,0;45,0;100;3,0;2,0;1,0;0,0;column;0,0;False;False;True;3,83199977875;False;0,865000009537
ARF1995w;game;2017-02-22-14-01-56;2,0;46,0;100;0,0;3,0;2,0;1,0;column;1,0;False;False;False;2,13300013542;True;0,927999973297
ARF1995w;game;2017-02-22-14-01-56;2,0;47,0;100;2,0;1,0;3,0;0,0;row;1,0;False;True;True;2,56599998474;False;1,50300002098
ARF1995w;game;2017-02-22-14-01-56;2,0;48,0;100;1,0;3,0;0,0;2,0;row;0,0;True;True;True;1,79999995232;True;0,664999961853
ARF1995w;game;2017-02-22-14-01-56;3,0;1,0;1000;0,0;3,0;2,0;1,0;row;0,0;True;True;True;1,39999985695;True;0,654000043869
ARF1995w;game;2017-02-22-14-01-56;3,0;2,0;1000;3,0;0,0;2,0;1,0;row;0,0;True;False;True;1,06699991226;True;1,3599998951
ARF1995w;game;2017-02-22-14-01-56;3,0;3,0;1000;2,0;3,0;0,0;1,0;row;0,0;False;False;False;1,79999995232;True;1,33100008965
ARF1995w;game;2017-02-22-14-01-56;3,0;4,0;1000;3,0;2,0;0,0;1,0;column;1,0;False;True;False;3,40100002289;True;1,1930000782
ARF1995w;game;2017-02-22-14-01-56;3,0;5,0;1000;2,0;1,0;0,0;3,0;row;0,0;False;False;False;1,96600008011;True;1,09500002861
ARF1995w;game;2017-02-22-14-01-56;3,0;6,0;1000;1,0;2,0;0,0;3,0;column;1,0;False;True;False;1,39999985695;True;0,963999986649
ARF1995w;game;2017-02-22-14-01-56;3,0;7,0;1000;2,0;3,0;0,0;1,0;column;1,0;False;True;False;1,5680000782;True;0,925999879837
ARF1995w;game;2017-02-22-14-01-56;3,0;8,0;1000;3,0;1,0;2,0;0,0;row;1,0;True;True;True;3,66600012779;True;0,890999794006
ARF1995w;game;2017-02-22-14-01-56;3,0;9,0;1000;0,0;2,0;3,0;1,0;row;1,0;False;False;False;2,76399993896;True;0,634999990463
ARF1995w;game;2017-02-22-14-01-56;3,0;10,0;1000;2,0;0,0;3,0;1,0;row;1,0;True;True;True;1,76699995995;True;1,36099982262
ARF1995w;game;2017-02-22-14-01-56;3,0;11,0;1000;0,0;2,0;1,0;3,0;row;0,0;True;False;True;2,632999897;True;1,19600009918
ARF1995w;game;2017-02-22-14-01-56;3,0;12,0;1000;0,0;3,0;1,0;2,0;row;1,0;True;False;True;1,19999980927;True;1,26300001144
ARF1995w;game;2017-02-22-14-01-56;3,0;13,0;1000;0,0;1,0;3,0;2,0;column;1,0;False;False;False;3,33299994469;True;0,793999910355
ARF1995w;game;2017-02-22-14-01-56;3,0;14,0;1000;0,0;1,0;2,0;3,0;row;1,0;False;True;False;3,53499984741;True;1,16900014877
ARF1995w;game;2017-02-22-14-01-56;3,0;15,0;1000;2,0;1,0;0,0;3,0;column;0,0;False;False;False;3,367000103;True;1,06199979782
ARF1995w;game;2017-02-22-14-01-56;3,0;16,0;1000;0,0;1,0;2,0;3,0;row;1,0;True;False;True;1,86699986458;True;1,09500002861
ARF1995w;game;2017-02-22-14-01-56;3,0;17,0;1000;2,0;3,0;0,0;1,0;column;0,0;True;False;True;2,63400006294;True;1,36599993706
ARF1995w;game;2017-02-22-14-01-56;3,0;18,0;1000;1,0;2,0;3,0;0,0;column;1,0;False;True;False;1,46600008011;True;1,13499999046
ARF1995w;game;2017-02-22-14-01-56;3,0;19,0;1000;0,0;2,0;3,0;1,0;column;1,0;False;True;False;3,56699991226;True;0,895999908447
ARF1995w;game;2017-02-22-14-01-56;3,0;20,0;1000;1,0;3,0;0,0;2,0;column;1,0;False;True;False;3,03299999237;True;1,06299996376
ARF1995w;game;2017-02-22-14-01-56;3,0;21,0;1000;0,0;3,0;1,0;2,0;row;0,0;False;True;False;3,76600003242;True;1,49799990654
ARF1995w;game;2017-02-22-14-01-56;3,0;22,0;1000;2,0;1,0;0,0;3,0;column;1,0;False;True;False;1,83299994469;True;1,26600003242
ARF1995w;game;2017-02-22-14-01-56;3,0;23,0;1000;3,0;0,0;1,0;2,0;row;0,0;False;True;False;1,59999990463;True;0,526999950409
ARF1995w;game;2017-02-22-14-01-56;3,0;24,0;1000;0,0;2,0;1,0;3,0;column;0,0;False;False;True;1,59999990463;False;0,963000059128
ARF1995w;game;2017-02-22-14-01-56;3,0;25,0;1000;1,0;2,0;0,0;3,0;column;1,0;True;False;True;1,33400011063;True;0,831000089645
ARF1995w;game;2017-02-22-14-01-56;3,0;26,0;1000;3,0;2,0;0,0;1,0;row;1,0;False;False;False;2,33300018311;True;0,827999830246
ARF1995w;game;2017-02-22-14-01-56;3,0;27,0;1000;3,0;0,0;2,0;1,0;row;0,0;False;True;False;1,39700007439;True;1,50099992752
ARF1995w;game;2017-02-22-14-01-56;3,0;28,0;1000;1,0;0,0;3,0;2,0;column;0,0;True;False;True;2,30000019073;True;0,52799987793
ARF1995w;game;2017-02-22-14-01-56;3,0;29,0;1000;3,0;1,0;2,0;0,0;column;1,0;False;True;False;2,33299994469;True;1,2610001564
ARF1995w;game;2017-02-22-14-01-56;3,0;30,0;1000;1,0;0,0;3,0;2,0;column;1,0;True;False;True;2,16700005531;True;1,36800003052
ARF1995w;game;2017-02-22-14-01-56;3,0;31,0;1000;2,0;0,0;3,0;1,0;column;1,0;True;False;True;2,06699991226;True;1,26499986649
ARF1995w;game;2017-02-22-14-01-56;3,0;32,0;1000;3,0;0,0;1,0;2,0;row;0,0;True;True;True;1,73300004005;True;1,29200005531
ARF1995w;game;2017-02-22-14-01-56;3,0;33,0;1000;0,0;1,0;3,0;2,0;column;0,0;True;True;True;2,53200006485;True;1,02800011635
ARF1995w;game;2017-02-22-14-01-56;3,0;34,0;1000;1,0;0,0;2,0;3,0;row;0,0;False;True;False;1,86500000954;True;1,29899978638
ARF1995w;game;2017-02-22-14-01-56;3,0;35,0;1000;3,0;0,0;1,0;2,0;column;1,0;True;False;True;1,7990000248;True;1,16300010681
ARF1995w;game;2017-02-22-14-01-56;3,0;36,0;1000;0,0;3,0;1,0;2,0;column;0,0;False;False;False;2,0;True;0,666999816895
ARF1995w;game;2017-02-22-14-01-56;3,0;37,0;1000;0,0;3,0;2,0;1,0;column;0,0;True;True;True;2,7990000248;True;1,12800002098
ARF1995w;game;2017-02-22-14-01-56;3,0;38,0;1000;1,0;3,0;2,0;0,0;column;0,0;False;False;False;2,132999897;True;0,96599984169
ARF1995w;game;2017-02-22-14-01-56;3,0;39,0;1000;0,0;3,0;2,0;1,0;row;1,0;True;True;True;1,56699991226;True;0,805999994278
ARF1995w;game;2017-02-22-14-01-56;3,0;40,0;1000;3,0;1,0;0,0;2,0;column;0,0;True;False;True;1,70100021362;True;0,696000099182
ARF1995w;game;2017-02-22-14-01-56;3,0;41,0;1000;2,0;1,0;3,0;0,0;column;1,0;False;True;False;3,90699982643;True;1,09999990463
ARF1995w;game;2017-02-22-14-01-56;3,0;42,0;1000;2,0;0,0;1,0;3,0;column;1,0;False;True;False;2,0;True;1,00099992752
ARF1995w;game;2017-02-22-14-01-56;3,0;43,0;1000;1,0;0,0;2,0;3,0;column;1,0;True;True;True;1,93300008774;True;1,49399995804
ARF1995w;game;2017-02-22-14-01-56;3,0;44,0;1000;3,0;0,0;1,0;2,0;column;0,0;False;False;False;5,53299999237;True;1,29399991035
ARF1995w;game;2017-02-22-14-01-56;3,0;45,0;1000;2,0;0,0;1,0;3,0;column;0,0;False;True;False;3,30099987984;True;1,22899985313
ARF1995w;game;2017-02-22-14-01-56;3,0;46,0;1000;1,0;3,0;2,0;0,0;column;1,0;False;True;False;2,46600008011;True;0,628000020981
ARF1995w;game;2017-02-22-14-01-56;3,0;47,0;1000;0,0;1,0;3,0;2,0;row;0,0;False;True;False;2,5;True;1,45800018311
ARF1995w;game;2017-02-22-14-01-56;3,0;48,0;1000;1,0;2,0;3,0;0,0;row;1,0;False;False;False;2,26699995995;True;0,773000001907
ARF1995w;game;2017-02-22-14-01-56;4,0;1,0;100;3,0;1,0;0,0;2,0;row;0,0;True;False;True;2,09899997711;True;1,19599986076
ARF1995w;game;2017-02-22-14-01-56;4,0;2,0;100;0,0;3,0;1,0;2,0;row;0,0;False;False;False;1,40000009537;True;0,931999921799
ARF1995w;game;2017-02-22-14-01-56;4,0;3,0;100;1,0;3,0;0,0;2,0;column;0,0;False;False;False;1,96700000763;True;0,601999998093
ARF1995w;game;2017-02-22-14-01-56;4,0;4,0;100;1,0;3,0;2,0;0,0;row;0,0;True;False;True;1,43400001526;True;1,02500009537
ARF1995w;game;2017-02-22-14-01-56;4,0;5,0;100;3,0;0,0;2,0;1,0;row;1,0;False;False;False;2,10000014305;True;1,50500011444
ARF1995w;game;2017-02-22-14-01-56;4,0;6,0;100;0,0;3,0;2,0;1,0;row;1,0;True;True;False;2,39800000191;False;1,39499998093
ARF1995w;game;2017-02-22-14-01-56;4,0;7,0;100;2,0;1,0;0,0;3,0;column;1,0;True;True;False;2,49900007248;False;0,728000164032
ARF1995w;game;2017-02-22-14-01-56;4,0;8,0;100;3,0;1,0;2,0;0,0;column;0,0;True;False;True;2,63400006294;True;1,12800002098
ARF1995w;game;2017-02-22-14-01-56;4,0;9,0;100;2,0;3,0;1,0;0,0;row;1,0;True;True;True;1,66699981689;True;1,29699993134
ARF1995w;game;2017-02-22-14-01-56;4,0;10,0;100;2,0;1,0;3,0;0,0;row;1,0;True;False;False;1,63400006294;False;0,963999986649
ARF1995w;game;2017-02-22-14-01-56;4,0;11,0;100;3,0;2,0;1,0;0,0;column;1,0;True;True;True;2,73500013351;True;0,658999919891
ARF1995w;game;2017-02-22-14-01-56;4,0;12,0;100;3,0;2,0;1,0;0,0;row;0,0;True;False;True;3,33299994469;True;1,16299986839
ARF1995w;game;2017-02-22-14-01-56;4,0;13,0;100;3,0;0,0;1,0;2,0;column;0,0;False;True;False;2,90000009537;True;1,10000014305
ARF1995w;game;2017-02-22-14-01-56;4,0;14,0;100;2,0;1,0;3,0;0,0;column;1,0;False;True;False;3,20000004768;True;0,990000009537
ARF1995w;game;2017-02-22-14-01-56;4,0;15,0;100;3,0;1,0;2,0;0,0;row;1,0;True;False;True;2,56699991226;True;0,635999917984
ARF1995w;game;2017-02-22-14-01-56;4,0;16,0;100;2,0;0,0;1,0;3,0;row;1,0;True;False;True;2,26600003242;True;0,771000146866
ARF1995w;game;2017-02-22-14-01-56;4,0;17,0;100;2,0;0,0;1,0;3,0;column;1,0;False;False;False;2,59899997711;True;0,725000143051
ARF1995w;game;2017-02-22-14-01-56;4,0;18,0;100;3,0;0,0;1,0;2,0;row;0,0;False;False;False;1,96600008011;True;0,762000083923
ARF1995w;game;2017-02-22-14-01-56;4,0;19,0;100;1,0;0,0;2,0;3,0;row;0,0;False;True;False;1,86599993706;True;0,732999801636
ARF1995w;game;2017-02-22-14-01-56;4,0;20,0;100;2,0;1,0;0,0;3,0;column;1,0;False;False;False;2,39999985695;True;0,891000032425
ARF1995w;game;2017-02-22-14-01-56;4,0;21,0;100;2,0;3,0;0,0;1,0;column;0,0;True;True;True;2,10100007057;True;0,871999979019
ARF1995w;game;2017-02-22-14-01-56;4,0;22,0;100;0,0;3,0;2,0;1,0;row;0,0;False;False;False;2,56599998474;True;0,803000211716
ARF1995w;game;2017-02-22-14-01-56;4,0;23,0;100;2,0;0,0;3,0;1,0;row;1,0;False;True;False;2,16799998283;True;1,47199988365
ARF1995w;game;2017-02-22-14-01-56;4,0;24,0;100;3,0;2,0;0,0;1,0;column;0,0;True;True;True;3,20000004768;True;0,963999986649
ARF1995w;game;2017-02-22-14-01-56;4,0;25,0;100;3,0;0,0;1,0;2,0;column;0,0;True;True;True;3,96700000763;True;1,05999994278
ARF1995w;game;2017-02-22-14-01-56;4,0;26,0;100;0,0;1,0;3,0;2,0;column;1,0;True;False;True;2,56699991226;True;1,5
ARF1995w;game;2017-02-22-14-01-56;4,0;27,0;100;0,0;1,0;3,0;2,0;column;0,0;True;False;True;2,13400006294;True;0,759999990463
ARF1995w;game;2017-02-22-14-01-56;4,0;28,0;100;2,0;3,0;1,0;0,0;row;0,0;True;True;True;1,33299994469;True;0,762000083923
ARF1995w;game;2017-02-22-14-01-56;4,0;29,0;100;2,0;0,0;3,0;1,0;column;1,0;False;False;False;3,53299999237;True;0,657999992371
ARF1995w;game;2017-02-22-14-01-56;4,0;30,0;100;3,0;1,0;2,0;0,0;row;0,0;True;True;True;1,10000014305;True;1,09200000763
ARF1995w;game;2017-02-22-14-01-56;4,0;31,0;100;0,0;3,0;1,0;2,0;column;0,0;True;False;True;2,06599998474;True;0,901000022888
ARF1995w;game;2017-02-22-14-01-56;4,0;32,0;100;3,0;2,0;0,0;1,0;row;1,0;True;True;True;2,26699995995;True;0,831000089645
ARF1995w;game;2017-02-22-14-01-56;4,0;33,0;100;1,0;0,0;2,0;3,0;row;0,0;True;False;True;1,46500015259;True;0,665999889374
ARF1995w;game;2017-02-22-14-01-56;4,0;34,0;100;0,0;1,0;3,0;2,0;row;0,0;False;False;False;1,36600017548;True;1,0649998188
ARF1995w;game;2017-02-22-14-01-56;4,0;35,0;100;1,0;3,0;0,0;2,0;row;1,0;False;True;False;2,83299994469;True;0,727999925613
ARF1995w;game;2017-02-22-14-01-56;4,0;36,0;100;1,0;0,0;2,0;3,0;column;1,0;False;False;False;2,39999985695;True;0,891999959946
ARF1995w;game;2017-02-22-14-01-56;4,0;37,0;100;3,0;1,0;0,0;2,0;row;1,0;False;True;False;1,76600003242;True;1,06299996376
ARF1995w;game;2017-02-22-14-01-56;4,0;38,0;100;3,0;2,0;0,0;1,0;column;1,0;False;False;False;3,66799998283;True;1,1740000248
ARF1995w;game;2017-02-22-14-01-56;4,0;39,0;100;3,0;1,0;2,0;0,0;row;1,0;False;True;False;1,53400015831;True;0,794999837875
ARF1995w;game;2017-02-22-14-01-56;4,0;40,0;100;1,0;3,0;0,0;2,0;column;1,0;True;True;True;2,36699986458;True;1,39800000191
ARF1995w;game;2017-02-22-14-01-56;4,0;41,0;100;3,0;1,0;2,0;0,0;column;1,0;False;False;False;2,56700015068;True;1,39699983597
ARF1995w;game;2017-02-22-14-01-56;4,0;42,0;100;2,0;0,0;3,0;1,0;column;0,0;False;True;False;4,40000009537;True;0,930999994278
ARF1995w;game;2017-02-22-14-01-56;4,0;43,0;100;2,0;1,0;0,0;3,0;row;1,0;False;False;False;3,30000019073;True;0,899999856949
ARF1995w;game;2017-02-22-14-01-56;4,0;44,0;100;2,0;3,0;1,0;0,0;row;0,0;False;False;False;1,60000014305;True;1,46799993515
ARF1995w;game;2017-02-22-14-01-56;4,0;45,0;100;2,0;3,0;0,0;1,0;column;0,0;False;True;False;2,2990000248;True;1,22399997711
ARF1995w;game;2017-02-22-14-01-56;4,0;46,0;100;0,0;1,0;3,0;2,0;column;0,0;False;False;False;2,16699981689;True;0,966000080109
ARF1995w;game;2017-02-22-14-01-56;4,0;47,0;100;2,0;3,0;1,0;0,0;column;0,0;True;True;True;1,46600008011;True;0,633999824524
ARF1995w;game;2017-02-22-14-01-56;4,0;48,0;100;0,0;3,0;2,0;1,0;column;1,0;True;False;True;2,03499984741;True;0,861000061035
ARF1995w;game;2017-02-22-14-01-56;5,0;1,0;1000;0,0;2,0;1,0;3,0;row;1,0;False;True;False;1,36600017548;True;0,744999885559
ARF1995w;game;2017-02-22-14-01-56;5,0;2,0;1000;1,0;2,0;3,0;0,0;column;1,0;True;False;False;1,53299999237;False;0,96599984169
ARF1995w;game;2017-02-22-14-01-56;5,0;3,0;1000;2,0;0,0;1,0;3,0;column;1,0;True;False;True;1,26699995995;True;1,47000002861
ARF1995w;game;2017-02-22-14-01-56;5,0;4,0;1000;2,0;1,0;3,0;0,0;column;1,0;True;True;True;2,5;True;1,16799998283
ARF1995w;game;2017-02-22-14-01-56;5,0;5,0;1000;1,0;3,0;2,0;0,0;row;0,0;True;True;True;1,09999990463;True;1,15700006485
ARF1995w;game;2017-02-22-14-01-56;5,0;6,0;1000;3,0;2,0;1,0;0,0;row;1,0;False;False;False;1,90000009537;True;1,06599998474
ARF1995w;game;2017-02-22-14-01-56;5,0;7,0;1000;1,0;3,0;2,0;0,0;row;1,0;True;True;True;1,26699995995;True;1,49500012398
ARF1995w;game;2017-02-22-14-01-56;5,0;8,0;1000;3,0;1,0;0,0;2,0;row;1,0;False;False;False;2,70000004768;True;1,4960000515
ARF1995w;game;2017-02-22-14-01-56;5,0;9,0;1000;1,0;3,0;0,0;2,0;column;1,0;True;False;False;2,86699986458;False;1,50600004196
ARF1995w;game;2017-02-22-14-01-56;5,0;10,0;1000;1,0;0,0;2,0;3,0;row;0,0;True;True;True;1,40000009537;True;0,625999927521
ARF1995w;game;2017-02-22-14-01-56;5,0;11,0;1000;0,0;1,0;2,0;3,0;row;0,0;False;False;False;1,29999995232;True;1,40599989891
ARF1995w;game;2017-02-22-14-01-56;5,0;12,0;1000;2,0;3,0;1,0;0,0;column;0,0;False;False;False;2,23300004005;True;1,35699987411
ARF1995w;game;2017-02-22-14-01-56;5,0;13,0;1000;0,0;2,0;3,0;1,0;row;1,0;True;False;True;1,89900016785;True;0,87299990654
ARF1995w;game;2017-02-22-14-01-56;5,0;14,0;1000;0,0;1,0;2,0;3,0;column;0,0;False;False;False;2,23399996758;True;0,930000066757
ARF1995w;game;2017-02-22-14-01-56;5,0;15,0;1000;3,0;0,0;2,0;1,0;column;0,0;False;True;False;2,63300013542;True;0,796999931335
ARF1995w;game;2017-02-22-14-01-56;5,0;16,0;1000;3,0;2,0;1,0;0,0;column;1,0;False;False;False;2,59999990463;True;0,759999990463
ARF1995w;game;2017-02-22-14-01-56;5,0;17,0;1000;3,0;2,0;0,0;1,0;row;0,0;True;True;True;0,966000080109;True;0,825000047684
ARF1995w;game;2017-02-22-14-01-56;5,0;18,0;1000;1,0;3,0;0,0;2,0;row;1,0;False;False;False;2,56700015068;True;0,696000099182
ARF1995w;game;2017-02-22-14-01-56;5,0;19,0;1000;0,0;2,0;1,0;3,0;row;0,0;False;True;False;1,06700015068;True;0,958999872208
ARF1995w;game;2017-02-22-14-01-56;5,0;20,0;1000;2,0;1,0;0,0;3,0;row;1,0;False;False;False;1,96599984169;True;1,23100018501
ARF1995w;game;2017-02-22-14-01-56;5,0;21,0;1000;2,0;0,0;1,0;3,0;row;1,0;True;True;True;2,56699991226;True;1,02899980545
ARF1995w;game;2017-02-22-14-01-56;5,0;22,0;1000;2,0;0,0;1,0;3,0;row;0,0;False;True;False;4,40000009537;True;1,49900007248
ARF1995w;game;2017-02-22-14-01-56;5,0;23,0;1000;1,0;2,0;0,0;3,0;column;0,0;True;False;True;2,53400015831;True;1,45700001717
ARF1995w;game;2017-02-22-14-01-56;5,0;24,0;1000;1,0;3,0;2,0;0,0;row;1,0;False;False;False;3,99900007248;True;1,23399996758
ARF1995w;game;2017-02-22-14-01-56;5,0;25,0;1000;2,0;0,0;3,0;1,0;column;0,0;True;True;True;3,26800012589;True;0,869999885559
ARF1995w;game;2017-02-22-14-01-56;5,0;26,0;1000;0,0;2,0;3,0;1,0;column;0,0;False;True;True;2,0;False;0,966000080109
ARF1995w;game;2017-02-22-14-01-56;5,0;27,0;1000;3,0;0,0;1,0;2,0;row;1,0;False;True;False;3,0;True;0,862999916077
ARF1995w;game;2017-02-22-14-01-56;5,0;28,0;1000;2,0;0,0;3,0;1,0;row;0,0;True;False;True;2,23300004005;True;0,87099981308
ARF1995w;game;2017-02-22-14-01-56;5,0;29,0;1000;2,0;0,0;1,0;3,0;column;0,0;True;False;False;1,23300004005;False;1,46399998665
ARF1995w;game;2017-02-22-14-01-56;5,0;30,0;1000;1,0;0,0;2,0;3,0;row;1,0;True;False;True;1,29999995232;True;1,03200006485
ARF1995w;game;2017-02-22-14-01-56;5,0;31,0;1000;3,0;0,0;2,0;1,0;column;0,0;True;False;True;2,367000103;True;1,33399987221
ARF1995w;game;2017-02-22-14-01-56;5,0;32,0;1000;3,0;2,0;1,0;0,0;column;0,0;True;True;True;2,06700015068;True;1,09400010109
ARF1995w;game;2017-02-22-14-01-56;5,0;33,0;1000;0,0;3,0;2,0;1,0;column;1,0;True;True;True;2,33400011063;True;0,893000125885
ARF1995w;game;2017-02-22-14-01-56;5,0;34,0;1000;1,0;0,0;3,0;2,0;row;1,0;True;True;True;1,63399982452;True;1,09200000763
ARF1995w;game;2017-02-22-14-01-56;5,0;35,0;1000;3,0;1,0;0,0;2,0;row;0,0;False;False;False;1,23399996758;True;0,90499997139
ARF1995w;game;2017-02-22-14-01-56;5,0;36,0;1000;2,0;0,0;3,0;1,0;column;0,0;False;True;True;1,53299999237;False;1,13800001144
ARF1995w;game;2017-02-22-14-01-56;5,0;37,0;1000;2,0;3,0;0,0;1,0;row;1,0;False;True;False;2,20000004768;True;1,13599991798
ARF1995w;game;2017-02-22-14-01-56;5,0;38,0;1000;0,0;3,0;2,0;1,0;row;0,0;False;True;False;1,40000009537;True;0,990000009537
ARF1995w;game;2017-02-22-14-01-56;5,0;39,0;1000;1,0;2,0;3,0;0,0;row;0,0;True;True;True;0,868000030518;True;0,735999822617
ARF1995w;game;2017-02-22-14-01-56;5,0;40,0;1000;2,0;3,0;1,0;0,0;row;0,0;True;False;True;1,06699991226;True;0,994999885559
ARF1995w;game;2017-02-22-14-01-56;5,0;41,0;1000;0,0;3,0;1,0;2,0;column;1,0;False;True;False;2,16600012779;True;1,49400019646
ARF1995w;game;2017-02-22-14-01-56;5,0;42,0;1000;2,0;1,0;0,0;3,0;row;1,0;True;False;True;1,26600003242;True;0,799999952316
ARF1995w;game;2017-02-22-14-01-56;5,0;43,0;1000;2,0;1,0;0,0;3,0;row;0,0;True;False;True;0,766999959946;True;0,569000005722
ARF1995w;game;2017-02-22-14-01-56;5,0;44,0;1000;1,0;3,0;0,0;2,0;row;0,0;True;True;False;3,33299994469;False;1,05900001526
ARF1995w;game;2017-02-22-14-01-56;5,0;45,0;1000;0,0;1,0;3,0;2,0;column;1,0;True;False;True;1,0;True;0,598000049591
ARF1995w;game;2017-02-22-14-01-56;5,0;46,0;1000;3,0;0,0;2,0;1,0;row;1,0;False;False;False;1,36699986458;True;1,16299986839
ARF1995w;game;2017-02-22-14-01-56;5,0;47,0;1000;3,0;2,0;1,0;0,0;row;0,0;True;False;True;1,16599988937;True;0,625999927521
ARF1995w;game;2017-02-22-14-01-56;5,0;48,0;1000;2,0;0,0;3,0;1,0;column;1,0;False;False;False;2,66699981689;True;0,897000074387
ARF1995w;game;2017-02-22-14-01-56;6,0;1,0;-100;0,0;2,0;1,0;3,0;row;1,0;True;False;True;1,45000004768;True;1,32699990273
ARF1995w;game;2017-02-22-14-01-56;6,0;2,0;-100;0,0;3,0;1,0;2,0;column;0,0;True;True;False;1,28299999237;False;0,598000049591
ARF1995w;game;2017-02-22-14-01-56;6,0;3,0;-100;3,0;2,0;0,0;1,0;row;1,0;True;True;False;1,68299984932;False;0,898000001907
ARF1995w;game;2017-02-22-14-01-56;6,0;4,0;-100;3,0;0,0;1,0;2,0;row;1,0;True;False;True;1,74899983406;True;1,16400003433
ARF1995w;game;2017-02-22-14-01-56;6,0;5,0;-100;0,0;2,0;1,0;3,0;column;0,0;False;False;False;3,34899997711;True;0,898000001907
ARF1995w;game;2017-02-22-14-01-56;6,0;6,0;-100;1,0;0,0;2,0;3,0;column;0,0;False;False;False;2,31500005722;True;0,924999952316
ARF1995w;game;2017-02-22-14-01-56;6,0;7,0;-100;3,0;0,0;2,0;1,0;row;1,0;True;True;True;1,78399991989;True;1,46500015259
ARF1995w;game;2017-02-22-14-01-56;6,0;8,0;-100;3,0;2,0;1,0;0,0;column;0,0;False;False;False;2,34800004959;True;1,0609998703
ARF1995w;game;2017-02-22-14-01-56;6,0;9,0;-100;1,0;0,0;2,0;3,0;column;0,0;True;False;True;2,0150001049;True;1,23699998856
ARF1995w;game;2017-02-22-14-01-56;6,0;10,0;-100;1,0;3,0;0,0;2,0;row;0,0;False;True;False;1,88400006294;True;0,932999849319
ARF1995w;game;2017-02-22-14-01-56;6,0;11,0;-100;1,0;2,0;0,0;3,0;column;1,0;False;True;False;2,81500005722;True;1,42600011826
ARF1995w;game;2017-02-22-14-01-56;6,0;12,0;-100;1,0;3,0;2,0;0,0;column;0,0;False;True;False;2,47899985313;True;0,758000135422
ARF1995w;game;2017-02-22-14-01-56;6,0;13,0;-100;2,0;1,0;3,0;0,0;row;1,0;True;True;False;1,88199996948;False;1,40300011635
ARF1995w;game;2017-02-22-14-01-56;6,0;14,0;-100;2,0;0,0;1,0;3,0;row;1,0;True;True;True;1,71700000763;True;1,02699995041
ARF1995w;game;2017-02-22-14-01-56;6,0;15,0;-100;3,0;2,0;1,0;0,0;row;0,0;True;False;True;1,21700000763;True;0,96799993515
ARF1995w;game;2017-02-22-14-01-56;6,0;16,0;-100;1,0;2,0;3,0;0,0;column;1,0;True;False;False;3,11599993706;False;0,568000078201
ARF1995w;game;2017-02-22-14-01-56;6,0;17,0;-100;1,0;3,0;0,0;2,0;row;1,0;True;False;True;1,44799995422;True;1,29499983788
ARF1995w;game;2017-02-22-14-01-56;6,0;18,0;-100;1,0;2,0;3,0;0,0;column;0,0;False;False;False;2,84800004959;True;0,634999990463
ARF1995w;game;2017-02-22-14-01-56;6,0;19,0;-100;2,0;3,0;1,0;0,0;row;0,0;True;False;True;2,1819999218;True;1,49800014496
ARF1995w;game;2017-02-22-14-01-56;6,0;20,0;-100;2,0;0,0;1,0;3,0;column;1,0;False;True;False;2,41700005531;True;1,16200017929
ARF1995w;game;2017-02-22-14-01-56;6,0;21,0;-100;0,0;3,0;1,0;2,0;row;1,0;False;False;True;2,38199996948;False;1,33699989319
ARF1995w;game;2017-02-22-14-01-56;6,0;22,0;-100;2,0;3,0;0,0;1,0;column;1,0;False;False;False;2,3140001297;True;1,4960000515
ARF1995w;game;2017-02-22-14-01-56;6,0;23,0;-100;2,0;3,0;0,0;1,0;row;1,0;True;True;True;2,78100013733;True;0,996999979019
ARF1995w;game;2017-02-22-14-01-56;6,0;24,0;-100;2,0;3,0;0,0;1,0;row;0,0;True;False;True;1,71700000763;True;0,968999862671
ARF1995w;game;2017-02-22-14-01-56;6,0;25,0;-100;3,0;1,0;2,0;0,0;row;1,0;False;True;False;3,8149998188;True;1,15899991989
ARF1995w;game;2017-02-22-14-01-56;6,0;26,0;-100;1,0;0,0;2,0;3,0;row;0,0;False;True;True;1,51600003242;False;1,00199985504
ARF1995w;game;2017-02-22-14-01-56;6,0;27,0;-100;0,0;3,0;2,0;1,0;column;1,0;False;False;True;3,78299999237;False;0,605000019073
ARF1995w;game;2017-02-22-14-01-56;6,0;28,0;-100;2,0;0,0;1,0;3,0;row;0,0;False;True;False;1,65000009537;True;0,930000066757
ARF1995w;game;2017-02-22-14-01-56;6,0;29,0;-100;1,0;3,0;0,0;2,0;row;1,0;False;False;False;2,382999897;True;1,36400008202
ARF1995w;game;2017-02-22-14-01-56;6,0;30,0;-100;3,0;2,0;1,0;0,0;row;1,0;True;False;True;1,71599984169;True;0,900000095367
ARF1995w;game;2017-02-22-14-01-56;6,0;31,0;-100;1,0;0,0;2,0;3,0;column;1,0;True;False;True;2,8180000782;True;1,32799983025
ARF1995w;game;2017-02-22-14-01-56;6,0;32,0;-100;3,0;0,0;1,0;2,0;row;0,0;True;False;True;1,58200001717;True;0,692000150681
ARF1995w;game;2017-02-22-14-01-56;6,0;33,0;-100;1,0;0,0;3,0;2,0;row;0,0;True;True;True;1,81699991226;True;1,4279999733
ARF1995w;game;2017-02-22-14-01-56;6,0;34,0;-100;3,0;2,0;1,0;0,0;row;1,0;False;True;False;2,25;True;0,959000110626
ARF1995w;game;2017-02-22-14-01-56;6,0;35,0;-100;0,0;1,0;2,0;3,0;column;0,0;True;True;True;3,58400011063;True;0,690999984741
ARF1995w;game;2017-02-22-14-01-56;6,0;36,0;-100;1,0;0,0;2,0;3,0;column;1,0;False;False;False;2,31699991226;True;0,807000160217
ARF1995w;game;2017-02-22-14-01-56;6,0;37,0;-100;3,0;0,0;1,0;2,0;column;1,0;False;True;False;2,94999980927;True;0,859000205994
ARF1995w;game;2017-02-22-14-01-56;6,0;38,0;-100;3,0;0,0;1,0;2,0;row;0,0;False;False;False;2,78500008583;True;0,530999898911
ARF1995w;game;2017-02-22-14-01-56;6,0;39,0;-100;0,0;2,0;3,0;1,0;row;1,0;False;True;False;3,68400001526;True;1,33300018311
ARF1995w;game;2017-02-22-14-01-56;6,0;40,0;-100;3,0;0,0;2,0;1,0;row;0,0;False;True;False;1,85000014305;True;0,791000127792
ARF1995w;game;2017-02-22-14-01-56;6,0;41,0;-100;0,0;3,0;2,0;1,0;column;1,0;True;False;True;2,31599998474;True;1,49300003052
ARF1995w;game;2017-02-22-14-01-56;6,0;42,0;-100;3,0;1,0;2,0;0,0;row;1,0;True;True;True;1,61699986458;True;1,42599987984
ARF1995w;game;2017-02-22-14-01-56;6,0;43,0;-100;0,0;1,0;3,0;2,0;row;0,0;False;True;True;1,91699981689;False;0,827999830246
ARF1995w;game;2017-02-22-14-01-56;6,0;44,0;-100;1,0;3,0;2,0;0,0;row;0,0;False;True;False;2,01699995995;True;0,861999988556
ARF1995w;game;2017-02-22-14-01-56;6,0;45,0;-100;3,0;1,0;2,0;0,0;column;0,0;False;False;False;2,75100016594;True;1,03199982643
ARF1995w;game;2017-02-22-14-01-56;6,0;46,0;-100;1,0;3,0;2,0;0,0;row;0,0;True;False;True;1,617000103;True;1,06599998474
ARF1995w;game;2017-02-22-14-01-56;6,0;47,0;-100;1,0;2,0;0,0;3,0;column;0,0;True;False;False;3,01600003242;False;0,828999996185
ARF1995w;game;2017-02-22-14-01-56;6,0;48,0;-100;2,0;3,0;0,0;1,0;column;1,0;True;False;True;4,04999995232;True;0,671000003815
ARF1995w;game;2017-02-22-14-01-56;7,0;1,0;-100;1,0;0,0;3,0;2,0;column;1,0;False;True;False;1,74700021744;True;1,03699994087
ARF1995w;game;2017-02-22-14-01-56;7,0;2,0;-100;0,0;3,0;2,0;1,0;row;0,0;True;False;True;1,882999897;True;1,36599993706
ARF1995w;game;2017-02-22-14-01-56;7,0;3,0;-100;2,0;0,0;3,0;1,0;column;0,0;False;False;False;2,78399991989;True;1,16700005531
ARF1995w;game;2017-02-22-14-01-56;7,0;4,0;-100;2,0;0,0;3,0;1,0;row;0,0;False;True;False;2,0490000248;True;0,930999994278
ARF1995w;game;2017-02-22-14-01-56;7,0;5,0;-100;0,0;1,0;2,0;3,0;column;1,0;False;True;False;4,31699991226;True;1,16600012779
ARF1995w;game;2017-02-22-14-01-56;7,0;6,0;-100;3,0;0,0;2,0;1,0;row;0,0;True;True;True;1,25;True;1,43600010872
ARF1995w;game;2017-02-22-14-01-56;7,0;7,0;-100;3,0;2,0;0,0;1,0;column;0,0;True;True;True;1,68099999428;True;1,03500008583
ARF1995w;game;2017-02-22-14-01-56;7,0;8,0;-100;3,0;0,0;2,0;1,0;column;0,0;True;False;True;2,21600008011;True;0,903000116348
ARF1995w;game;2017-02-22-14-01-56;7,0;9,0;-100;1,0;3,0;2,0;0,0;column;1,0;False;False;False;4,54999995232;True;1,29400014877
ARF1995w;game;2017-02-22-14-01-56;7,0;10,0;-100;2,0;1,0;3,0;0,0;row;0,0;True;False;True;1,3860001564;True;0,867000102997
ARF1995w;game;2017-02-22-14-01-56;7,0;11,0;-100;0,0;3,0;2,0;1,0;column;0,0;False;True;False;1,38400006294;True;1,4319999218
ARF1995w;game;2017-02-22-14-01-56;7,0;12,0;-100;2,0;1,0;0,0;3,0;row;1,0;False;False;False;1,78400015831;True;1,12599992752
ARF1995w;game;2017-02-22-14-01-56;7,0;13,0;-100;3,0;1,0;0,0;2,0;column;0,0;False;False;False;2,54999995232;True;1,13900017738
ARF1995w;game;2017-02-22-14-01-56;7,0;14,0;-100;3,0;2,0;0,0;1,0;row;0,0;False;False;False;1,48399996758;True;1,06200003624
ARF1995w;game;2017-02-22-14-01-56;7,0;15,0;-100;2,0;3,0;0,0;1,0;row;0,0;False;True;False;1,45000004768;True;0,794000148773
ARF1995w;game;2017-02-22-14-01-56;7,0;16,0;-100;0,0;3,0;2,0;1,0;column;0,0;True;False;True;2,31599998474;True;1,49800014496
ARF1995w;game;2017-02-22-14-01-56;7,0;17,0;-100;0,0;3,0;1,0;2,0;row;0,0;True;True;True;1,68400001526;True;1,43099999428
ARF1995w;game;2017-02-22-14-01-56;7,0;18,0;-100;0,0;3,0;1,0;2,0;column;1,0;False;True;False;1,85599994659;True;0,829000234604
ARF1995w;game;2017-02-22-14-01-56;7,0;19,0;-100;0,0;1,0;3,0;2,0;column;0,0;True;True;True;2,98300004005;True;0,692999839783
ARF1995w;game;2017-02-22-14-01-56;7,0;20,0;-100;3,0;0,0;2,0;1,0;column;1,0;False;True;False;2,48400020599;True;1,29299998283
ARF1995w;game;2017-02-22-14-01-56;7,0;21,0;-100;1,0;2,0;3,0;0,0;column;1,0;False;True;False;2,28200006485;True;0,662000179291
ARF1995w;game;2017-02-22-14-01-56;7,0;22,0;-100;2,0;1,0;3,0;0,0;column;1,0;True;True;True;1,34900021553;True;1,32799983025
ARF1995w;game;2017-02-22-14-01-56;7,0;23,0;-100;1,0;0,0;3,0;2,0;column;0,0;False;False;False;2,78399991989;True;1,39400005341
ARF1995w;game;2017-02-22-14-01-56;7,0;24,0;-100;3,0;1,0;0,0;2,0;column;1,0;False;False;False;2,34899997711;True;1,50100016594
ARF1995w;game;2017-02-22-14-01-56;7,0;25,0;-100;2,0;1,0;3,0;0,0;column;1,0;False;False;False;4,21600008011;True;0,998000144958
ARF1995w;game;2017-02-22-14-01-56;7,0;26,0;-100;3,0;1,0;0,0;2,0;row;1,0;True;False;True;1,98099994659;True;0,692000150681
ARF1995w;game;2017-02-22-14-01-56;7,0;27,0;-100;0,0;1,0;2,0;3,0;row;1,0;True;False;False;2,21599984169;False;0,65900015831
ARF1995w;game;2017-02-22-14-01-56;7,0;28,0;-100;0,0;1,0;2,0;3,0;column;0,0;False;True;False;1,91700005531;True;1,02999997139
ARF1995w;game;2017-02-22-14-01-56;7,0;29,0;-100;1,0;0,0;3,0;2,0;row;0,0;False;False;False;1,5490000248;True;0,765000104904
ARF1995w;game;2017-02-22-14-01-56;7,0;30,0;-100;3,0;1,0;2,0;0,0;row;0,0;True;True;True;2,24900007248;True;0,798999786377
ARF1995w;game;2017-02-22-14-01-56;7,0;31,0;-100;0,0;2,0;1,0;3,0;column;1,0;True;True;True;1,88400006294;True;0,960000038147
ARF1995w;game;2017-02-22-14-01-56;7,0;32,0;-100;1,0;3,0;0,0;2,0;row;0,0;True;False;True;1,61599993706;True;1,06599998474
ARF1995w;game;2017-02-22-14-01-56;7,0;33,0;-100;0,0;3,0;1,0;2,0;column;1,0;True;True;True;1,81700015068;True;1,3259999752
ARF1995w;game;2017-02-22-14-01-56;7,0;34,0;-100;1,0;3,0;0,0;2,0;column;1,0;True;True;True;1,88399982452;True;0,799999952316
ARF1995w;game;2017-02-22-14-01-56;7,0;35,0;-100;0,0;2,0;3,0;1,0;column;1,0;True;False;True;1,68300008774;True;1,26099991798
ARF1995w;game;2017-02-22-14-01-56;7,0;36,0;-100;3,0;2,0;1,0;0,0;column;1,0;False;False;False;2,48300004005;True;0,733000040054
ARF1995w;game;2017-02-22-14-01-56;7,0;37,0;-100;1,0;3,0;0,0;2,0;column;0,0;False;True;False;2,45000004768;True;0,56200003624
ARF1995w;game;2017-02-22-14-01-56;7,0;38,0;-100;0,0;2,0;1,0;3,0;row;1,0;False;True;False;4,04999995232;True;0,759000062943
ARF1995w;game;2017-02-22-14-01-56;7,0;39,0;-100;1,0;2,0;0,0;3,0;row;0,0;True;True;True;1,31500005722;True;0,861000061035
ARF1995w;game;2017-02-22-14-01-56;7,0;40,0;-100;0,0;1,0;3,0;2,0;row;1,0;False;True;False;2,44799995422;True;1,05900001526
ARF1995w;game;2017-02-22-14-01-56;7,0;41,0;-100;2,0;3,0;0,0;1,0;column;0,0;False;False;False;3,15000009537;True;0,599999904633
ARF1995w;game;2017-02-22-14-01-56;7,0;42,0;-100;2,0;0,0;1,0;3,0;row;0,0;True;True;True;1,18300008774;True;0,892000198364
ARF1995w;game;2017-02-22-14-01-56;7,0;43,0;-100;3,0;2,0;0,0;1,0;column;1,0;False;False;False;2,34999990463;True;1,37000012398
ARF1995w;game;2017-02-22-14-01-56;7,0;44,0;-100;1,0;2,0;3,0;0,0;row;0,0;True;False;True;1,45000004768;True;0,765000104904
ARF1995w;game;2017-02-22-14-01-56;7,0;45,0;-100;1,0;0,0;3,0;2,0;row;1,0;False;False;False;1,81699991226;True;1,36499977112
ARF1995w;game;2017-02-22-14-01-56;7,0;46,0;-100;3,0;0,0;2,0;1,0;column;0,0;False;True;False;3,28299999237;True;1,46300005913
ARF1995w;game;2017-02-22-14-01-56;7,0;47,0;-100;0,0;2,0;3,0;1,0;row;0,0;False;False;False;1,65000009537;True;1,4279999733
ARF1995w;game;2017-02-22-14-01-56;7,0;48,0;-100;0,0;3,0;2,0;1,0;row;1,0;False;False;False;1,51699995995;True;1,23200011253
ARF1995w;game;2017-02-22-14-01-56;8,0;1,0;1000;1,0;2,0;0,0;3,0;row;0,0;False;False;False;1,43399977684;True;0,586999893188
ARF1995w;game;2017-02-22-14-01-56;8,0;2,0;1000;0,0;2,0;1,0;3,0;column;0,0;True;False;True;2,16700005531;True;0,932999849319
ARF1995w;game;2017-02-22-14-01-56;8,0;3,0;1000;1,0;0,0;3,0;2,0;row;1,0;False;True;False;1,46599984169;True;0,996000051498
ARF1995w;game;2017-02-22-14-01-56;8,0;4,0;1000;2,0;1,0;3,0;0,0;row;1,0;False;True;False;2,26599979401;True;0,635999917984
ARF1995w;game;2017-02-22-14-01-56;8,0;5,0;1000;3,0;2,0;1,0;0,0;row;1,0;True;True;True;1,19899988174;True;1,29999995232
ARF1995w;game;2017-02-22-14-01-56;8,0;6,0;1000;0,0;1,0;3,0;2,0;row;0,0;True;False;True;1,20000004768;True;1,22700023651
ARF1995w;game;2017-02-22-14-01-56;8,0;7,0;1000;2,0;3,0;0,0;1,0;column;1,0;True;False;False;1,33399987221;False;1,19799995422
ARF1995w;game;2017-02-22-14-01-56;8,0;8,0;1000;0,0;1,0;2,0;3,0;column;0,0;True;False;True;1,53299999237;True;1,39499998093
ARF1995w;game;2017-02-22-14-01-56;8,0;9,0;1000;0,0;1,0;3,0;2,0;row;1,0;False;True;False;1,46600008011;True;0,631999969482
ARF1995w;game;2017-02-22-14-01-56;8,0;10,0;1000;1,0;3,0;2,0;0,0;row;0,0;False;False;False;3,73399996758;True;0,631999969482
ARF1995w;game;2017-02-22-14-01-56;8,0;11,0;1000;1,0;0,0;3,0;2,0;column;1,0;False;True;False;1,06599998474;True;0,865999937057
ARF1995w;game;2017-02-22-14-01-56;8,0;12,0;1000;1,0;2,0;0,0;3,0;row;1,0;True;True;True;1,16799998283;True;0,65700006485
ARF1995w;game;2017-02-22-14-01-56;8,0;13,0;1000;1,0;3,0;0,0;2,0;row;1,0;True;False;True;1,132999897;True;1,40599989891
ARF1995w;game;2017-02-22-14-01-56;8,0;14,0;1000;3,0;1,0;2,0;0,0;row;0,0;False;True;False;1,23399996758;True;0,56500005722
ARF1995w;game;2017-02-22-14-01-56;8,0;15,0;1000;3,0;1,0;2,0;0,0;column;1,0;True;False;True;1,59999990463;True;0,668999910355
ARF1995w;game;2017-02-22-14-01-56;8,0;16,0;1000;3,0;1,0;0,0;2,0;column;1,0;False;False;False;2,23399996758;True;1,1970000267
ARF1995w;game;2017-02-22-14-01-56;8,0;17,0;1000;2,0;0,0;3,0;1,0;row;0,0;False;False;False;4,06700015068;True;1,23200011253
ARF1995w;game;2017-02-22-14-01-56;8,0;18,0;1000;1,0;3,0;0,0;2,0;column;0,0;True;True;True;2,83399987221;True;0,767000198364
ARF1995w;game;2017-02-22-14-01-56;8,0;19,0;1000;0,0;1,0;2,0;3,0;column;1,0;True;True;True;1,83299994469;True;0,999000072479
ARF1995w;game;2017-02-22-14-01-56;8,0;20,0;1000;0,0;3,0;1,0;2,0;row;1,0;False;True;True;1,49900007248;False;0,565999984741
ARF1995w;game;2017-02-22-14-01-56;8,0;21,0;1000;1,0;2,0;0,0;3,0;row;0,0;True;True;True;2,03299999237;True;1,26700019836
ARF1995w;game;2017-02-22-14-01-56;8,0;22,0;1000;3,0;2,0;1,0;0,0;row;0,0;False;False;False;1,13399982452;True;1,49699997902
ARF1995w;game;2017-02-22-14-01-56;8,0;23,0;1000;3,0;1,0;0,0;2,0;column;1,0;True;True;True;1,43400001526;True;1,12299990654
ARF1995w;game;2017-02-22-14-01-56;8,0;24,0;1000;2,0;3,0;1,0;0,0;row;0,0;False;False;False;1,36699986458;True;0,663000106812
ARF1995w;game;2017-02-22-14-01-56;8,0;25,0;1000;2,0;1,0;3,0;0,0;row;0,0;False;False;False;1,0;True;0,696000099182
ARF1995w;game;2017-02-22-14-01-56;8,0;26,0;1000;2,0;3,0;0,0;1,0;row;0,0;True;False;True;1,33500003815;True;1,06599998474
ARF1995w;game;2017-02-22-14-01-56;8,0;27,0;1000;1,0;0,0;2,0;3,0;column;0,0;False;False;False;2,33299994469;True;1,16300010681
ARF1995w;game;2017-02-22-14-01-56;8,0;28,0;1000;0,0;2,0;3,0;1,0;column;0,0;True;False;True;1,76600003242;True;0,691999912262
ARF1995w;game;2017-02-22-14-01-56;8,0;29,0;1000;3,0;0,0;1,0;2,0;column;0,0;True;False;True;1,46600008011;True;0,789999961853
ARF1995w;game;2017-02-22-14-01-56;8,0;30,0;1000;1,0;0,0;2,0;3,0;row;1,0;False;False;True;2,79999995232;False;0,730999946594
ARF1995w;game;2017-02-22-14-01-56;8,0;31,0;1000;0,0;3,0;1,0;2,0;row;0,0;True;False;True;0,932999849319;True;1,06599998474
ARF1995w;game;2017-02-22-14-01-56;8,0;32,0;1000;3,0;2,0;0,0;1,0;row;1,0;True;True;True;1,06599998474;True;1,52500009537
ARF1995w;game;2017-02-22-14-01-56;8,0;33,0;1000;1,0;0,0;2,0;3,0;column;1,0;False;False;False;2,2990000248;True;1,22600007057
ARF1995w;game;2017-02-22-14-01-56;8,0;34,0;1000;2,0;1,0;0,0;3,0;column;0,0;True;True;False;1,69900012016;False;1,46099996567
ARF1995w;game;2017-02-22-14-01-56;8,0;35,0;1000;0,0;3,0;2,0;1,0;column;0,0;False;False;False;2,33300018311;True;1,2619998455
ARF1995w;game;2017-02-22-14-01-56;8,0;36,0;1000;0,0;2,0;1,0;3,0;column;1,0;True;False;True;2,53299999237;True;0,62700009346
ARF1995w;game;2017-02-22-14-01-56;8,0;37,0;1000;0,0;3,0;1,0;2,0;column;0,0;True;False;True;3,76600003242;True;1,3630001545
ARF1995w;game;2017-02-22-14-01-56;8,0;38,0;1000;2,0;3,0;1,0;0,0;column;0,0;True;False;True;1,09999990463;True;0,896000146866
ARF1995w;game;2017-02-22-14-01-56;8,0;39,0;1000;3,0;1,0;0,0;2,0;column;0,0;False;True;False;1,36699986458;True;0,898000001907
ARF1995w;game;2017-02-22-14-01-56;8,0;40,0;1000;3,0;1,0;2,0;0,0;row;0,0;True;False;True;1,03299999237;True;1,0039999485
ARF1995w;game;2017-02-22-14-01-56;8,0;41,0;1000;0,0;2,0;3,0;1,0;row;0,0;True;False;True;1,70000004768;True;0,789000034332
ARF1995w;game;2017-02-22-14-01-56;8,0;42,0;1000;2,0;1,0;3,0;0,0;column;0,0;True;True;True;1,29999995232;True;0,897000074387
ARF1995w;game;2017-02-22-14-01-56;8,0;43,0;1000;3,0;1,0;0,0;2,0;row;0,0;True;False;True;0,666999816895;True;0,895000219345
ARF1995w;game;2017-02-22-14-01-56;8,0;44,0;1000;1,0;0,0;3,0;2,0;row;0,0;True;False;True;0,566999912262;True;1,23200011253
ARF1995w;game;2017-02-22-14-01-56;8,0;45,0;1000;1,0;2,0;0,0;3,0;column;0,0;False;False;False;2,2990000248;True;1,29999995232
ARF1995w;game;2017-02-22-14-01-56;8,0;46,0;1000;0,0;3,0;2,0;1,0;row;1,0;False;True;False;2,26799988747;True;1,10000014305
ARF1995w;game;2017-02-22-14-01-56;8,0;47,0;1000;2,0;1,0;3,0;0,0;row;0,0;True;False;True;1,13400006294;True;1,09800004959
ARF1995w;game;2017-02-22-14-01-56;8,0;48,0;1000;1,0;0,0;3,0;2,0;column;0,0;False;True;False;1,63400006294;True;1,32800006866
ARF1995w;game;2017-02-22-14-01-56;9,0;1,0;100;0,0;2,0;1,0;3,0;row;1,0;False;False;True;2,89999985695;False;1,33599996567
ARF1995w;game;2017-02-22-14-01-56;9,0;2,0;100;0,0;2,0;3,0;1,0;row;1,0;False;True;False;2,76699995995;True;0,59299993515
ARF1995w;game;2017-02-22-14-01-56;9,0;3,0;100;1,0;2,0;0,0;3,0;row;0,0;True;True;False;1,70000004768;False;1,5
ARF1995w;game;2017-02-22-14-01-56;9,0;4,0;100;1,0;0,0;3,0;2,0;column;0,0;False;False;False;1,29999995232;True;0,929999828339
ARF1995w;game;2017-02-22-14-01-56;9,0;5,0;100;1,0;0,0;3,0;2,0;column;1,0;True;True;True;1,76699995995;True;1,40500020981
ARF1995w;game;2017-02-22-14-01-56;9,0;6,0;100;0,0;1,0;3,0;2,0;row;1,0;False;True;False;1,36899995804;True;1,39199995995
ARF1995w;game;2017-02-22-14-01-56;9,0;7,0;100;0,0;1,0;2,0;3,0;row;1,0;False;True;False;3,09999990463;True;1,42899990082
ARF1995w;game;2017-02-22-14-01-56;9,0;8,0;100;3,0;1,0;2,0;0,0;column;1,0;True;True;True;2,03200006485;True;0,724999904633
ARF1995w;game;2017-02-22-14-01-56;9,0;9,0;100;3,0;0,0;1,0;2,0;row;1,0;False;True;False;1,96700000763;True;1,32999992371
ARF1995w;game;2017-02-22-14-01-56;9,0;10,0;100;0,0;1,0;2,0;3,0;row;1,0;True;False;True;2,03500008583;True;0,958999872208
ARF1995w;game;2017-02-22-14-01-56;9,0;11,0;100;3,0;2,0;1,0;0,0;column;0,0;True;True;True;3,39800000191;True;1,32500004768
ARF1995w;game;2017-02-22-14-01-56;9,0;12,0;100;0,0;2,0;1,0;3,0;column;1,0;False;True;False;1,86699986458;True;0,756000041962
ARF1995w;game;2017-02-22-14-01-56;9,0;13,0;100;0,0;3,0;2,0;1,0;column;0,0;True;True;True;2,29999995232;True;1,23000001907
ARF1995w;game;2017-02-22-14-01-56;9,0;14,0;100;1,0;3,0;2,0;0,0;column;1,0;False;False;False;1,79999995232;True;1,09599995613
ARF1995w;game;2017-02-22-14-01-56;9,0;15,0;100;0,0;1,0;3,0;2,0;row;1,0;True;True;True;2,20000004768;True;1,49800014496
ARF1995w;game;2017-02-22-14-01-56;9,0;16,0;100;2,0;0,0;3,0;1,0;column;1,0;True;False;False;2,13199996948;False;0,789999961853
ARF1995w;game;2017-02-22-14-01-56;9,0;17,0;100;1,0;3,0;0,0;2,0;column;1,0;False;True;False;1,93300008774;True;1,40299987793
ARF1995w;game;2017-02-22-14-01-56;9,0;18,0;100;3,0;2,0;1,0;0,0;column;1,0;False;False;False;2,60100007057;True;1,23000001907
ARF1995w;game;2017-02-22-14-01-56;9,0;19,0;100;0,0;1,0;3,0;2,0;row;0,0;True;False;True;1,29999995232;True;0,724999904633
ARF1995w;game;2017-02-22-14-01-56;9,0;20,0;100;1,0;0,0;2,0;3,0;row;1,0;False;False;False;3,83299994469;True;0,895999908447
ARF1995w;game;2017-02-22-14-01-56;9,0;21,0;100;1,0;0,0;3,0;2,0;row;0,0;False;True;True;4,0;False;1,46499991417
ARF1995w;game;2017-02-22-14-01-56;9,0;22,0;100;2,0;1,0;0,0;3,0;row;0,0;True;True;True;0,934000015259;True;1,23400020599
ARF1995w;game;2017-02-22-14-01-56;9,0;23,0;100;1,0;3,0;2,0;0,0;row;1,0;False;False;False;3,43200016022;True;0,765000104904
ARF1995w;game;2017-02-22-14-01-56;9,0;24,0;100;3,0;2,0;1,0;0,0;row;0,0;False;False;False;1,79899978638;True;1,06599998474
ARF1995w;game;2017-02-22-14-01-56;9,0;25,0;100;3,0;1,0;0,0;2,0;column;0,0;True;False;True;1,83100008965;True;0,526999950409
ARF1995w;game;2017-02-22-14-01-56;9,0;26,0;100;0,0;2,0;3,0;1,0;row;1,0;True;False;True;2,53400015831;True;0,970999956131
ARF1995w;game;2017-02-22-14-01-56;9,0;27,0;100;3,0;2,0;0,0;1,0;column;0,0;False;True;False;3,76699995995;True;1,03100013733
ARF1995w;game;2017-02-22-14-01-56;9,0;28,0;100;3,0;1,0;0,0;2,0;column;0,0;False;True;False;2,0;True;1,09600019455
ARF1995w;game;2017-02-22-14-01-56;9,0;29,0;100;2,0;0,0;1,0;3,0;column;0,0;True;True;True;2,83400011063;True;0,592000007629
ARF1995w;game;2017-02-22-14-01-56;9,0;30,0;100;1,0;2,0;0,0;3,0;column;1,0;True;True;True;2,16700005531;True;0,626999855042
ARF1995w;game;2017-02-22-14-01-56;9,0;31,0;100;1,0;2,0;0,0;3,0;row;0,0;False;False;False;1,66700005531;True;1,22799992561
ARF1995w;game;2017-02-22-14-01-56;9,0;32,0;100;2,0;3,0;0,0;1,0;column;1,0;True;False;True;1,89999985695;True;0,796000003815
ARF1995w;game;2017-02-22-14-01-56;9,0;33,0;100;1,0;0,0;3,0;2,0;row;1,0;True;False;True;1,69999980927;True;0,991000175476
ARF1995w;game;2017-02-22-14-01-56;9,0;34,0;100;0,0;1,0;2,0;3,0;row;0,0;True;False;True;1,16600012779;True;0,93499994278
ARF1995w;game;2017-02-22-14-01-56;9,0;35,0;100;2,0;1,0;3,0;0,0;column;0,0;False;False;False;3,03399991989;True;1,43499994278
ARF1995w;game;2017-02-22-14-01-56;9,0;36,0;100;0,0;2,0;3,0;1,0;column;1,0;False;False;False;2,43300008774;True;1,19099998474
ARF1995w;game;2017-02-22-14-01-56;9,0;37,0;100;2,0;0,0;1,0;3,0;row;1,0;False;True;False;2,367000103;True;1,46899986267
ARF1995w;game;2017-02-22-14-01-56;9,0;38,0;100;1,0;2,0;0,0;3,0;row;1,0;True;False;True;1,23399996758;True;0,966000080109
ARF1995w;game;2017-02-22-14-01-56;9,0;39,0;100;3,0;0,0;2,0;1,0;row;0,0;False;False;False;2,00099992752;True;0,733000040054
ARF1995w;game;2017-02-22-14-01-56;9,0;40,0;100;3,0;0,0;2,0;1,0;row;0,0;True;False;True;1,56599998474;True;1,32500004768
ARF1995w;game;2017-02-22-14-01-56;9,0;41,0;100;0,0;1,0;2,0;3,0;column;0,0;False;True;False;3,46700000763;True;1,05999994278
ARF1995w;game;2017-02-22-14-01-56;9,0;42,0;100;3,0;0,0;2,0;1,0;row;1,0;True;False;True;1,33299994469;True;1,33800005913
ARF1995w;game;2017-02-22-14-01-56;9,0;43,0;100;1,0;2,0;0,0;3,0;column;0,0;True;False;True;5,46700000763;True;0,963000059128
ARF1995w;game;2017-02-22-14-01-56;9,0;44,0;100;2,0;3,0;1,0;0,0;column;0,0;False;False;False;2,33400011063;True;1,03200006485
ARF1995w;game;2017-02-22-14-01-56;9,0;45,0;100;0,0;3,0;1,0;2,0;column;0,0;False;True;False;2,43499994278;True;1,16700005531
ARF1995w;game;2017-02-22-14-01-56;9,0;46,0;100;2,0;1,0;3,0;0,0;column;1,0;True;False;True;2,96700000763;True;1,3259999752
ARF1995w;game;2017-02-22-14-01-56;9,0;47,0;100;1,0;2,0;3,0;0,0;row;0,0;False;True;False;1,53299999237;True;1,06699991226
ARF1995w;game;2017-02-22-14-01-56;9,0;48,0;100;1,0;2,0;0,0;3,0;column;1,0;False;False;False;2,53299999237;True;1,39199995995
ARF1995w;game;2017-02-22-14-01-56;10,0;1,0;-100;2,0;0,0;1,0;3,0;column;0,0;False;True;False;2,51700019836;True;1,13400006294
ARF1995w;game;2017-02-22-14-01-56;10,0;2,0;-100;2,0;3,0;0,0;1,0;column;0,0;True;False;True;2,48399996758;True;0,805999994278
ARF1995w;game;2017-02-22-14-01-56;10,0;3,0;-100;1,0;2,0;3,0;0,0;row;1,0;False;True;False;2,01699995995;True;1,39299988747
ARF1995w;game;2017-02-22-14-01-56;10,0;4,0;-100;0,0;3,0;2,0;1,0;row;1,0;True;True;True;1,91700005531;True;1,47099995613
ARF1995w;game;2017-02-22-14-01-56;10,0;5,0;-100;2,0;1,0;3,0;0,0;column;0,0;False;True;False;4,08500003815;True;0,828000068665
ARF1995w;game;2017-02-22-14-01-56;10,0;6,0;-100;3,0;0,0;1,0;2,0;column;0,0;True;False;True;2,14899992943;True;0,599999904633
ARF1995w;game;2017-02-22-14-01-56;10,0;7,0;-100;3,0;0,0;1,0;2,0;column;0,0;False;True;False;1,81700015068;True;0,861999988556
ARF1995w;game;2017-02-22-14-01-56;10,0;8,0;-100;2,0;1,0;0,0;3,0;column;1,0;True;False;True;2,35000014305;True;0,789000034332
ARF1995w;game;2017-02-22-14-01-56;10,0;9,0;-100;0,0;2,0;3,0;1,0;row;1,0;True;False;False;4,51600003242;False;1,43299984932
ARF1995w;game;2017-02-22-14-01-56;10,0;10,0;-100;0,0;1,0;3,0;2,0;row;0,0;True;True;True;1,64899992943;True;0,628000020981
ARF1995w;game;2017-02-22-14-01-56;10,0;11,0;-100;0,0;2,0;3,0;1,0;column;0,0;True;False;True;3,11500000954;True;0,525000095367
ARF1995w;game;2017-02-22-14-01-56;10,0;12,0;-100;2,0;3,0;1,0;0,0;row;0,0;False;True;False;1,38399982452;True;1,1400001049
ARF1995w;game;2017-02-22-14-01-56;10,0;13,0;-100;1,0;0,0;2,0;3,0;row;1,0;True;False;True;1,58300018311;True;0,697000026703
ARF1995w;game;2017-02-22-14-01-56;10,0;14,0;-100;0,0;2,0;1,0;3,0;row;0,0;True;True;True;1,11500000954;True;1,32800006866
ARF1995w;game;2017-02-22-14-01-56;10,0;15,0;-100;3,0;1,0;0,0;2,0;row;1,0;False;True;False;1,94799995422;True;0,863000154495
ARF1995w;game;2017-02-22-14-01-56;10,0;16,0;-100;2,0;0,0;3,0;1,0;column;1,0;True;True;True;2,38199996948;True;0,539999961853
ARF1995w;game;2017-02-22-14-01-56;10,0;17,0;-100;0,0;3,0;1,0;2,0;row;1,0;True;True;True;2,14899992943;True;1,25900006294
ARF1995w;game;2017-02-22-14-01-56;10,0;18,0;-100;3,0;0,0;1,0;2,0;row;1,0;False;True;False;2,71600008011;True;1,33200001717
ARF1995w;game;2017-02-22-14-01-56;10,0;19,0;-100;1,0;0,0;3,0;2,0;row;1,0;True;False;True;1,38300013542;True;1,13000011444
ARF1995w;game;2017-02-22-14-01-56;10,0;20,0;-100;2,0;0,0;3,0;1,0;row;1,0;False;False;False;1,84899997711;True;1,33699989319
ARF1995w;game;2017-02-22-14-01-56;10,0;21,0;-100;3,0;2,0;1,0;0,0;row;0,0;False;True;False;2,04800009727;True;0,790999889374
ARF1995w;game;2017-02-22-14-01-56;10,0;22,0;-100;3,0;1,0;2,0;0,0;row;0,0;False;False;False;2,04999995232;True;1,16100001335
ARF1995w;game;2017-02-22-14-01-56;10,0;23,0;-100;1,0;2,0;3,0;0,0;row;1,0;True;True;True;2,08400011063;True;0,658999919891
ARF1995w;game;2017-02-22-14-01-56;10,0;24,0;-100;0,0;1,0;2,0;3,0;row;0,0;False;True;False;1,78200006485;True;0,733999967575
ARF1995w;game;2017-02-22-14-01-56;10,0;25,0;-100;2,0;1,0;0,0;3,0;column;1,0;False;True;False;2,58299994469;True;0,995000123978
ARF1995w;game;2017-02-22-14-01-56;10,0;26,0;-100;1,0;0,0;3,0;2,0;column;1,0;True;True;True;2,78299999237;True;0,835999965668
ARF1995w;game;2017-02-22-14-01-56;10,0;27,0;-100;3,0;0,0;2,0;1,0;row;1,0;False;True;False;2,01699995995;True;0,960000038147
ARF1995w;game;2017-02-22-14-01-56;10,0;28,0;-100;1,0;3,0;2,0;0,0;row;1,0;True;True;True;1,48400020599;True;1,09500002861
ARF1995w;game;2017-02-22-14-01-56;10,0;29,0;-100;0,0;3,0;1,0;2,0;column;0,0;False;True;False;3,05200004578;True;0,728999853134
ARF1995w;game;2017-02-22-14-01-56;10,0;30,0;-100;0,0;2,0;1,0;3,0;row;0,0;False;False;False;1,882999897;True;0,828000068665
ARF1995w;game;2017-02-22-14-01-56;10,0;31,0;-100;2,0;1,0;0,0;3,0;row;1,0;True;False;True;1,48399996758;True;1,22500014305
ARF1995w;game;2017-02-22-14-01-56;10,0;32,0;-100;3,0;1,0;2,0;0,0;column;1,0;True;False;True;2,65000009537;True;0,756999969482
ARF1995w;game;2017-02-22-14-01-56;10,0;33,0;-100;1,0;2,0;0,0;3,0;row;1,0;False;True;False;1,58400011063;True;1,20299983025
ARF1995w;game;2017-02-22-14-01-56;10,0;34,0;-100;3,0;1,0;0,0;2,0;column;0,0;True;False;True;2,45000004768;True;0,727999925613
ARF1995w;game;2017-02-22-14-01-56;10,0;35,0;-100;0,0;3,0;2,0;1,0;row;0,0;False;True;False;1,58299994469;True;1,36499977112
ARF1995w;game;2017-02-22-14-01-56;10,0;36,0;-100;1,0;0,0;3,0;2,0;column;0,0;True;True;True;1,617000103;True;1,33200001717
ARF1995w;game;2017-02-22-14-01-56;10,0;37,0;-100;1,0;2,0;0,0;3,0;column;1,0;True;True;True;2,71700000763;True;0,526999950409
ARF1995w;game;2017-02-22-14-01-56;10,0;38,0;-100;3,0;2,0;0,0;1,0;column;0,0;False;False;False;3,38400006294;True;1,39800000191
ARF1995w;game;2017-02-22-14-01-56;10,0;39,0;-100;2,0;0,0;1,0;3,0;column;1,0;True;False;True;1,98300004005;True;1,49300003052
ARF1995w;game;2017-02-22-14-01-56;10,0;40,0;-100;2,0;3,0;1,0;0,0;row;1,0;False;False;True;3,85000014305;False;0,830999851227
ARF1995w;game;2017-02-22-14-01-56;10,0;41,0;-100;2,0;0,0;3,0;1,0;column;0,0;True;False;True;2,04899978638;True;1,42700004578
ARF1995w;game;2017-02-22-14-01-56;10,0;42,0;-100;3,0;1,0;2,0;0,0;column;1,0;False;False;False;2,31599998474;True;0,766000032425
ARF1995w;game;2017-02-22-14-01-56;10,0;43,0;-100;2,0;3,0;0,0;1,0;row;1,0;False;False;False;2,55000019073;True;1,45799994469
ARF1995w;game;2017-02-22-14-01-56;10,0;44,0;-100;1,0;0,0;2,0;3,0;row;1,0;False;True;False;3,41599988937;True;1,42700004578
ARF1995w;game;2017-02-22-14-01-56;10,0;45,0;-100;2,0;1,0;3,0;0,0;row;1,0;False;True;False;1,71700000763;True;1,19499993324
ARF1995w;game;2017-02-22-14-01-56;10,0;46,0;-100;2,0;0,0;3,0;1,0;row;1,0;True;True;False;2,04999995232;False;0,830999851227
ARF1995w;game;2017-02-22-14-01-56;10,0;47,0;-100;0,0;2,0;3,0;1,0;column;0,0;False;False;False;3,382999897;True;1,23200011253
ARF1995w;game;2017-02-22-14-01-56;10,0;48,0;-100;3,0;2,0;1,0;0,0;column;1,0;True;True;True;2,41400003433;True;0,765000104904
ARF1995w;game;2017-02-22-14-01-56;11,0;1,0;100;1,0;3,0;2,0;0,0;column;0,0;True;True;True;2,13399982452;True;0,894999980927
ARF1995w;game;2017-02-22-14-01-56;11,0;2,0;100;1,0;3,0;2,0;0,0;column;0,0;False;False;False;1,83399987221;True;0,890000104904
ARF1995w;game;2017-02-22-14-01-56;11,0;3,0;100;1,0;2,0;3,0;0,0;row;1,0;True;True;True;1,93300008774;True;1,43000006676
ARF1995w;game;2017-02-22-14-01-56;11,0;4,0;100;0,0;3,0;2,0;1,0;column;0,0;False;False;False;2,09899997711;True;0,726999998093
ARF1995w;game;2017-02-22-14-01-56;11,0;5,0;100;3,0;1,0;0,0;2,0;column;1,0;False;True;False;1,93299984932;True;0,628999948502
ARF1995w;game;2017-02-22-14-01-56;11,0;6,0;100;2,0;0,0;1,0;3,0;row;0,0;False;False;False;2,16700005531;True;1,40100002289
ARF1995w;game;2017-02-22-14-01-56;11,0;7,0;100;2,0;0,0;1,0;3,0;row;0,0;True;True;True;1,06699991226;True;0,960000038147
ARF1995w;game;2017-02-22-14-01-56;11,0;8,0;100;2,0;3,0;0,0;1,0;row;0,0;True;False;True;1,23399996758;True;1,23399996758
ARF1995w;game;2017-02-22-14-01-56;11,0;9,0;100;3,0;2,0;0,0;1,0;row;0,0;False;False;False;1,4319999218;True;0,56299996376
ARF1995w;game;2017-02-22-14-01-56;11,0;10,0;100;0,0;2,0;3,0;1,0;column;0,0;True;True;True;2,132999897;True;0,671999931335
ARF1995w;game;2017-02-22-14-01-56;11,0;11,0;100;2,0;0,0;3,0;1,0;column;0,0;True;True;True;1,46599984169;True;1,46399998665
ARF1995w;game;2017-02-22-14-01-56;11,0;12,0;100;0,0;2,0;3,0;1,0;row;0,0;True;False;True;1,46600008011;True;0,533999919891
ARF1995w;game;2017-02-22-14-01-56;11,0;13,0;100;3,0;0,0;1,0;2,0;row;1,0;True;True;True;1,26700019836;True;1,13100004196
ARF1995w;game;2017-02-22-14-01-56;11,0;14,0;100;2,0;1,0;3,0;0,0;row;0,0;True;True;True;1,13400006294;True;0,762000083923
ARF1995w;game;2017-02-22-14-01-56;11,0;15,0;100;0,0;2,0;1,0;3,0;row;0,0;True;True;True;1,51399993896;True;1,16500020027
ARF1995w;game;2017-02-22-14-01-56;11,0;16,0;100;1,0;3,0;2,0;0,0;row;0,0;False;True;False;1,46599984169;True;1,26600003242
ARF1995w;game;2017-02-22-14-01-56;11,0;17,0;100;1,0;0,0;2,0;3,0;row;1,0;True;True;True;1,56699991226;True;1,19900012016
ARF1995w;game;2017-02-22-14-01-56;11,0;18,0;100;2,0;3,0;1,0;0,0;row;1,0;False;False;False;2,43400001526;True;0,825000047684
ARF1995w;game;2017-02-22-14-01-56;11,0;19,0;100;0,0;1,0;2,0;3,0;column;0,0;True;True;True;2,80100011826;True;0,56500005722
ARF1995w;game;2017-02-22-14-01-56;11,0;20,0;100;1,0;0,0;2,0;3,0;column;0,0;True;False;True;1,53299999237;True;1,2009999752
ARF1995w;game;2017-02-22-14-01-56;11,0;21,0;100;3,0;0,0;2,0;1,0;column;0,0;False;True;False;2,5;True;0,631999969482
ARF1995w;game;2017-02-22-14-01-56;11,0;22,0;100;3,0;2,0;1,0;0,0;row;1,0;False;False;False;3,73100018501;True;0,93799996376
ARF1995w;game;2017-02-22-14-01-56;11,0;23,0;100;3,0;1,0;2,0;0,0;row;0,0;False;False;False;2,39899992943;True;0,930999994278
ARF1995w;game;2017-02-22-14-01-56;11,0;24,0;100;0,0;3,0;2,0;1,0;row;0,0;True;True;True;1,76700019836;True;0,673000097275
ARF1995w;game;2017-02-22-14-01-56;11,0;25,0;100;3,0;0,0;1,0;2,0;row;0,0;True;False;True;1,0;True;1,37400007248
ARF1995w;game;2017-02-22-14-01-56;11,0;26,0;100;2,0;1,0;0,0;3,0;column;0,0;False;False;False;3,43300008774;True;0,640000104904
ARF1995w;game;2017-02-22-14-01-56;11,0;27,0;100;3,0;0,0;1,0;2,0;column;1,0;False;False;False;1,86599993706;True;0,859999895096
ARF1995w;game;2017-02-22-14-01-56;11,0;28,0;100;3,0;1,0;0,0;2,0;row;1,0;True;False;True;1,66700005531;True;1,09500002861
ARF1995w;game;2017-02-22-14-01-56;11,0;29,0;100;1,0;3,0;0,0;2,0;row;0,0;False;True;False;2,06700015068;True;0,776000022888
ARF1995w;game;2017-02-22-14-01-56;11,0;30,0;100;3,0;1,0;0,0;2,0;column;1,0;True;True;True;1,90000009537;True;0,525000095367
ARF1995w;game;2017-02-22-14-01-56;11,0;31,0;100;0,0;3,0;1,0;2,0;row;1,0;True;True;False;2,19900012016;False;1,12599992752
ARF1995w;game;2017-02-22-14-01-56;11,0;32,0;100;2,0;0,0;1,0;3,0;column;0,0;False;False;False;2,69900012016;True;0,696000099182
ARF1995w;game;2017-02-22-14-01-56;11,0;33,0;100;2,0;1,0;0,0;3,0;row;0,0;False;True;False;1,63300013542;True;1,46200013161
ARF1995w;game;2017-02-22-14-01-56;11,0;34,0;100;1,0;3,0;0,0;2,0;column;0,0;True;False;True;1,53299999237;True;1,29499983788
ARF1995w;game;2017-02-22-14-01-56;11,0;35,0;100;1,0;2,0;3,0;0,0;column;0,0;True;False;True;1,33300018311;True;0,56200003624
ARF1995w;game;2017-02-22-14-01-56;11,0;36,0;100;0,0;2,0;1,0;3,0;column;1,0;True;True;True;1,66700005531;True;1,40100002289
ARF1995w;game;2017-02-22-14-01-56;11,0;37,0;100;2,0;0,0;3,0;1,0;row;0,0;False;False;False;2,0;True;1,13199996948
ARF1995w;game;2017-02-22-14-01-56;11,0;38,0;100;0,0;2,0;3,0;1,0;column;1,0;True;True;True;1,76699995995;True;1,29100012779
ARF1995w;game;2017-02-22-14-01-56;11,0;39,0;100;2,0;3,0;1,0;0,0;column;1,0;False;True;False;2,33299994469;True;0,94000005722
ARF1995w;game;2017-02-22-14-01-56;11,0;40,0;100;0,0;2,0;1,0;3,0;row;1,0;True;False;True;2,73399996758;True;1,16599988937
ARF1995w;game;2017-02-22-14-01-56;11,0;41,0;100;1,0;2,0;0,0;3,0;column;0,0;False;True;False;4,53299999237;True;1,16100001335
ARF1995w;game;2017-02-22-14-01-56;11,0;42,0;100;0,0;3,0;1,0;2,0;row;1,0;False;True;False;1,79999995232;True;1,29299998283
ARF1995w;game;2017-02-22-14-01-56;11,0;43,0;100;2,0;0,0;1,0;3,0;column;1,0;True;False;True;2,1320002079;True;1,26999998093
ARF1995w;game;2017-02-22-14-01-56;11,0;44,0;100;0,0;3,0;1,0;2,0;column;1,0;True;False;True;2,20000004768;True;1,17100000381
ARF1995w;game;2017-02-22-14-01-56;11,0;45,0;100;3,0;0,0;2,0;1,0;column;1,0;True;True;True;1,43400001526;True;1,03600001335
ARF1995w;game;2017-02-22-14-01-56;11,0;46,0;100;1,0;3,0;2,0;0,0;row;1,0;True;False;True;1,20000004768;True;1,23300004005
ARF1995w;game;2017-02-22-14-01-56;11,0;47,0;100;1,0;0,0;3,0;2,0;row;1,0;False;False;False;1,46700000763;True;0,871999979019
ARF1995w;game;2017-02-22-14-01-56;11,0;48,0;100;2,0;1,0;0,0;3,0;column;0,0;True;False;True;2,73300004005;True;1,42900013924
ARF1995w;game;2017-02-22-14-01-56;12,0;1,0;1000;3,0;1,0;2,0;0,0;column;0,0;False;False;False;1,56599998474;True;1,50999999046
ARF1995w;game;2017-02-22-14-01-56;12,0;2,0;1000;1,0;3,0;2,0;0,0;column;0,0;True;True;True;1,90000009537;True;1,03099989891
ARF1995w;game;2017-02-22-14-01-56;12,0;3,0;1000;3,0;0,0;1,0;2,0;row;1,0;True;True;True;1,10100007057;True;0,838999986649
ARF1995w;game;2017-02-22-14-01-56;12,0;4,0;1000;2,0;0,0;1,0;3,0;row;0,0;True;False;True;1,23300004005;True;0,628999948502
ARF1995w;game;2017-02-22-14-01-56;12,0;5,0;1000;2,0;3,0;1,0;0,0;column;1,0;False;True;False;2,2990000248;True;1,50099992752
ARF1995w;game;2017-02-22-14-01-56;12,0;6,0;1000;1,0;3,0;0,0;2,0;column;0,0;False;False;False;2,06699991226;True;0,993000030518
ARF1995w;game;2017-02-22-14-01-56;12,0;7,0;1000;1,0;2,0;3,0;0,0;column;0,0;True;False;True;1,70000004768;True;1,19000005722
ARF1995w;game;2017-02-22-14-01-56;12,0;8,0;1000;3,0;2,0;0,0;1,0;column;1,0;True;True;True;1,43300008774;True;0,631000041962
ARF1995w;game;2017-02-22-14-01-56;12,0;9,0;1000;3,0;2,0;0,0;1,0;row;0,0;False;True;False;3,5;True;1,05899977684
ARF1995w;game;2017-02-22-14-01-56;12,0;10,0;1000;2,0;3,0;0,0;1,0;column;0,0;False;False;False;2,93299984932;True;1,03299999237
ARF1995w;game;2017-02-22-14-01-56;12,0;11,0;1000;1,0;0,0;3,0;2,0;row;0,0;False;False;False;2,83299994469;True;1,22699999809
ARF1995w;game;2017-02-22-14-01-56;12,0;12,0;1000;1,0;2,0;3,0;0,0;row;0,0;False;False;False;3,5;True;0,593999862671
ARF1995w;game;2017-02-22-14-01-56;12,0;13,0;1000;2,0;1,0;0,0;3,0;column;1,0;True;True;True;2,367000103;True;1,20300006866
ARF1995w;game;2017-02-22-14-01-56;12,0;14,0;1000;0,0;2,0;3,0;1,0;column;1,0;True;False;True;1,16700005531;True;1,02900004387
ARF1995w;game;2017-02-22-14-01-56;12,0;15,0;1000;2,0;3,0;1,0;0,0;row;1,0;True;False;True;1,06700015068;True;0,862999916077
ARF1995w;game;2017-02-22-14-01-56;12,0;16,0;1000;0,0;1,0;2,0;3,0;column;1,0;False;False;False;2,90000009537;True;1,29699993134
ARF1995w;game;2017-02-22-14-01-56;12,0;17,0;1000;2,0;3,0;1,0;0,0;column;1,0;True;True;True;1,86800003052;True;0,621999979019
ARF1995w;game;2017-02-22-14-01-56;12,0;18,0;1000;0,0;2,0;1,0;3,0;column;1,0;False;False;False;1,66600012779;True;1,3599998951
ARF1995w;game;2017-02-22-14-01-56;12,0;19,0;1000;0,0;1,0;3,0;2,0;row;1,0;True;True;False;1,86699986458;False;1,36199998856
ARF1995w;game;2017-02-22-14-01-56;12,0;20,0;1000;3,0;0,0;1,0;2,0;column;1,0;False;False;False;2,13499999046;True;1,36400008202
ARF1995w;game;2017-02-22-14-01-56;12,0;21,0;1000;3,0;1,0;0,0;2,0;row;1,0;True;True;True;2,79999995232;True;0,56600022316
ARF1995w;game;2017-02-22-14-01-56;12,0;22,0;1000;0,0;2,0;1,0;3,0;row;1,0;True;False;False;1,26600003242;False;0,660000085831
ARF1995w;game;2017-02-22-14-01-56;12,0;23,0;1000;2,0;3,0;0,0;1,0;row;1,0;True;True;True;1,20000004768;True;1,16500020027
ARF1995w;game;2017-02-22-14-01-56;12,0;24,0;1000;2,0;3,0;1,0;0,0;row;1,0;False;True;False;1,33299994469;True;1,09999990463
ARF1995w;game;2017-02-22-14-01-56;12,0;25,0;1000;1,0;3,0;0,0;2,0;row;0,0;False;False;False;2,53299999237;True;0,697000026703
ARF1995w;game;2017-02-22-14-01-56;12,0;26,0;1000;3,0;2,0;1,0;0,0;column;0,0;False;False;False;2,132999897;True;1,49799990654
ARF1995w;game;2017-02-22-14-01-56;12,0;27,0;1000;3,0;2,0;1,0;0,0;column;1,0;True;False;True;1,49900007248;True;1,16499996185
ARF1995w;game;2017-02-22-14-01-56;12,0;28,0;1000;1,0;2,0;3,0;0,0;row;1,0;True;False;True;2,66699981689;True;1,26499986649
ARF1995w;game;2017-02-22-14-01-56;12,0;29,0;1000;0,0;1,0;3,0;2,0;column;0,0;False;False;False;1,66700005531;True;1,43099999428
ARF1995w;game;2017-02-22-14-01-56;12,0;30,0;1000;3,0;0,0;2,0;1,0;column;1,0;True;False;True;1,46700000763;True;1,13000011444
ARF1995w;game;2017-02-22-14-01-56;12,0;31,0;1000;3,0;1,0;2,0;0,0;column;0,0;True;True;True;2,10100007057;True;1,43000006676
ARF1995w;game;2017-02-22-14-01-56;12,0;32,0;1000;2,0;1,0;3,0;0,0;column;0,0;False;True;False;2,26700019836;True;0,895999908447
ARF1995w;game;2017-02-22-14-01-56;12,0;33,0;1000;3,0;1,0;2,0;0,0;row;1,0;False;True;False;1,96599984169;True;1,09400010109
ARF1995w;game;2017-02-22-14-01-56;12,0;34,0;1000;3,0;2,0;0,0;1,0;column;0,0;False;True;False;2,367000103;True;1,23200011253
ARF1995w;game;2017-02-22-14-01-56;12,0;35,0;1000;3,0;0,0;2,0;1,0;column;1,0;False;True;False;1,5;True;1,26099991798
ARF1995w;game;2017-02-22-14-01-56;12,0;36,0;1000;3,0;0,0;2,0;1,0;row;1,0;True;False;True;1,53299999237;True;0,829999923706
ARF1995w;game;2017-02-22-14-01-56;12,0;37,0;1000;1,0;3,0;2,0;0,0;column;1,0;True;True;True;1,19999980927;True;0,662000179291
ARF1995w;game;2017-02-22-14-01-56;12,0;38,0;1000;0,0;2,0;3,0;1,0;row;0,0;False;True;False;1,29999995232;True;1,32899999619
ARF1995w;game;2017-02-22-14-01-56;12,0;39,0;1000;0,0;3,0;2,0;1,0;column;1,0;False;True;False;1,20000004768;True;1,26399993896
ARF1995w;game;2017-02-22-14-01-56;12,0;40,0;1000;1,0;2,0;3,0;0,0;column;0,0;False;False;False;2,63499999046;True;1,26300001144
ARF1995w;game;2017-02-22-14-01-56;12,0;41,0;1000;3,0;2,0;0,0;1,0;column;0,0;True;False;True;1,23399996758;True;0,927000045776
ARF1995w;game;2017-02-22-14-01-56;12,0;42,0;1000;0,0;1,0;2,0;3,0;row;0,0;True;False;True;1,20000004768;True;1,2990000248
ARF1995w;game;2017-02-22-14-01-56;12,0;43,0;1000;2,0;0,0;1,0;3,0;row;1,0;False;True;False;1,60000014305;True;1,33500003815
ARF1995w;game;2017-02-22-14-01-56;12,0;44,0;1000;2,0;1,0;3,0;0,0;row;1,0;True;True;True;1,43299984932;True;1,13199996948
ARF1995w;game;2017-02-22-14-01-56;12,0;45,0;1000;1,0;0,0;2,0;3,0;column;0,0;True;True;True;3,16700005531;True;0,55999994278
ARF1995w;game;2017-02-22-14-01-56;12,0;46,0;1000;1,0;2,0;0,0;3,0;row;1,0;False;False;False;2,132999897;True;1,09200000763
ARF1995w;game;2017-02-22-14-01-56;12,0;47,0;1000;0,0;3,0;1,0;2,0;column;1,0;True;True;True;1,5;True;0,695999860764
ARF1995w;game;2017-02-22-14-01-56;12,0;48,0;1000;2,0;0,0;3,0;1,0;row;1,0;False;False;False;2,23399996758;True;0,53200006485
