Observer;Condition;SessionID;Block;Trial;COA;Color0;Color1;Color2;Color3;Target;Which;Match;FlipComplimentary;Response;RT;Correct;OnsetDelay
BKF1975w;experiment;2017-03-13-15-29-32;1,0;1,0;-100;1,0;0,0;2,0;3,0;column;0,0;True;True;True;6,38000011444;True;0,941999912262
BKF1975w;experiment;2017-03-13-15-29-32;1,0;2,0;-100;0,0;3,0;2,0;1,0;row;0,0;False;True;True;2,31599998474;False;1,09699988365
BKF1975w;experiment;2017-03-13-15-29-32;1,0;3,0;-100;1,0;0,0;3,0;2,0;column;0,0;False;False;False;5,21700000763;True;1,33499979973
BKF1975w;experiment;2017-03-13-15-29-32;1,0;4,0;-100;1,0;2,0;0,0;3,0;column;0,0;False;False;False;1,84999990463;True;0,898000001907
BKF1975w;experiment;2017-03-13-15-29-32;1,0;5,0;-100;2,0;3,0;1,0;0,0;column;1,0;True;True;True;1,18300008774;True;0,861999988556
BKF1975w;experiment;2017-03-13-15-29-32;1,0;6,0;-100;1,0;0,0;3,0;2,0;column;1,0;False;True;True;2,25;False;0,988999843597
BKF1975w;experiment;2017-03-13-15-29-32;1,0;7,0;-100;2,0;1,0;3,0;0,0;column;1,0;False;False;False;1,41699981689;True;1,26999998093
BKF1975w;experiment;2017-03-13-15-29-32;1,0;8,0;-100;1,0;3,0;2,0;0,0;column;1,0;False;False;False;3,15100002289;True;1,20399999619
BKF1975w;experiment;2017-03-13-15-29-32;1,0;9,0;-100;1,0;3,0;2,0;0,0;row;0,0;False;False;False;1,98300004005;True;1,43300008774
BKF1975w;experiment;2017-03-13-15-29-32;1,0;10,0;-100;2,0;3,0;0,0;1,0;column;1,0;True;False;True;2,91700005531;True;1,32899999619
BKF1975w;experiment;2017-03-13-15-29-32;1,0;11,0;-100;0,0;2,0;3,0;1,0;row;1,0;False;False;False;3,18299984932;True;1,19000005722
BKF1975w;experiment;2017-03-13-15-29-32;1,0;12,0;-100;3,0;2,0;0,0;1,0;row;1,0;True;True;False;1,54800009727;False;0,56200003624
BKF1975w;experiment;2017-03-13-15-29-32;1,0;13,0;-100;0,0;3,0;2,0;1,0;column;0,0;True;False;False;1,75;False;1,29200005531
BKF1975w;experiment;2017-03-13-15-29-32;1,0;14,0;-100;3,0;0,0;2,0;1,0;column;0,0;True;True;False;1,68499994278;False;0,825000047684
BKF1975w;experiment;2017-03-13-15-29-32;1,0;15,0;-100;0,0;1,0;2,0;3,0;column;1,0;False;False;False;2,31599998474;True;1,10000014305
BKF1975w;experiment;2017-03-13-15-29-32;1,0;16,0;-100;2,0;0,0;1,0;3,0;row;1,0;True;False;False;1,78299999237;False;0,731000185013
BKF1975w;experiment;2017-03-13-15-29-32;1,0;17,0;-100;2,0;3,0;1,0;0,0;row;0,0;True;False;False;1,44899988174;False;0,736000061035
BKF1975w;experiment;2017-03-13-15-29-32;1,0;18,0;-100;2,0;0,0;1,0;3,0;row;1,0;False;True;False;1,28299999237;True;0,569999933243
BKF1975w;experiment;2017-03-13-15-29-32;1,0;19,0;-100;3,0;1,0;2,0;0,0;column;0,0;False;False;False;1,38400006294;True;1,25900006294
BKF1975w;experiment;2017-03-13-15-29-32;1,0;20,0;-100;2,0;1,0;3,0;0,0;row;1,0;True;False;False;2,84500002861;False;1,49499988556
BKF1975w;experiment;2017-03-13-15-29-32;1,0;21,0;-100;2,0;0,0;3,0;1,0;row;1,0;True;False;False;1,38300013542;False;1,1930000782
BKF1975w;experiment;2017-03-13-15-29-32;1,0;22,0;-100;1,0;2,0;0,0;3,0;row;0,0;True;False;False;1,41700005531;False;0,799000024796
BKF1975w;experiment;2017-03-13-15-29-32;1,0;23,0;-100;1,0;3,0;2,0;0,0;column;1,0;True;False;True;1,25100016594;True;1,06200003624
BKF1975w;experiment;2017-03-13-15-29-32;1,0;24,0;-100;3,0;2,0;0,0;1,0;column;1,0;True;True;False;1,85100007057;False;1,33500003815
BKF1975w;experiment;2017-03-13-15-29-32;1,0;25,0;-100;2,0;0,0;3,0;1,0;row;0,0;True;False;False;1,6819999218;False;1,02800011635
BKF1975w;experiment;2017-03-13-15-29-32;1,0;26,0;-100;1,0;0,0;2,0;3,0;row;0,0;False;True;False;1,08200001717;True;1,03100013733
BKF1975w;experiment;2017-03-13-15-29-32;1,0;27,0;-100;2,0;0,0;1,0;3,0;row;0,0;False;False;False;1,28299999237;True;1,10199999809
BKF1975w;experiment;2017-03-13-15-29-32;1,0;28,0;-100;3,0;0,0;2,0;1,0;row;0,0;True;False;False;1,48399996758;False;0,964999914169
BKF1975w;experiment;2017-03-13-15-29-32;1,0;29,0;-100;3,0;0,0;1,0;2,0;column;1,0;False;False;False;2,75;True;1,06700015068
BKF1975w;experiment;2017-03-13-15-29-32;1,0;30,0;-100;0,0;2,0;3,0;1,0;column;0,0;True;True;True;2,51799988747;True;0,865999937057
BKF1975w;experiment;2017-03-13-15-29-32;1,0;31,0;-100;2,0;0,0;3,0;1,0;column;0,0;False;True;True;2,25;False;0,733999967575
BKF1975w;experiment;2017-03-13-15-29-32;1,0;32,0;-100;3,0;2,0;1,0;0,0;column;0,0;False;True;False;3,28299999237;True;0,796000003815
BKF1975w;experiment;2017-03-13-15-29-32;1,0;33,0;-100;0,0;1,0;3,0;2,0;row;1,0;False;True;True;6,01799988747;False;1,13400006294
BKF1975w;experiment;2017-03-13-15-29-32;1,0;34,0;-100;0,0;1,0;3,0;2,0;column;1,0;True;True;True;5,25;True;0,535000085831
BKF1975w;experiment;2017-03-13-15-29-32;1,0;35,0;-100;1,0;0,0;2,0;3,0;row;1,0;False;False;False;5,3140001297;True;0,592000007629
BKF1975w;experiment;2017-03-13-15-29-32;1,0;36,0;-100;3,0;1,0;2,0;0,0;column;0,0;True;False;False;6,74699997902;False;1,52600002289
BKF1975w;experiment;2017-03-13-15-29-32;1,0;37,0;-100;2,0;0,0;3,0;1,0;column;1,0;True;True;True;2,15100002289;True;1,46799993515
BKF1975w;experiment;2017-03-13-15-29-32;1,0;38,0;-100;1,0;2,0;0,0;3,0;row;1,0;False;True;False;3,01699995995;True;0,802999973297
BKF1975w;experiment;2017-03-13-15-29-32;1,0;39,0;-100;1,0;3,0;0,0;2,0;column;1,0;False;False;True;4,28299999237;False;1,03800010681
BKF1975w;experiment;2017-03-13-15-29-32;1,0;40,0;-100;1,0;0,0;3,0;2,0;column;1,0;True;False;True;2,14999985695;True;1,20199990273
BKF1975w;experiment;2017-03-13-15-29-32;1,0;41,0;-100;1,0;2,0;0,0;3,0;column;1,0;False;True;False;2,58299994469;True;1,39700007439
BKF1975w;experiment;2017-03-13-15-29-32;1,0;42,0;-100;1,0;3,0;0,0;2,0;row;0,0;False;True;False;3,01699995995;True;0,588999986649
BKF1975w;experiment;2017-03-13-15-29-32;1,0;43,0;-100;1,0;3,0;0,0;2,0;row;1,0;False;False;False;3,28299999237;True;0,924999952316
BKF1975w;experiment;2017-03-13-15-29-32;1,0;44,0;-100;3,0;0,0;1,0;2,0;row;0,0;True;False;False;2,31700015068;False;1,26900005341
BKF1975w;experiment;2017-03-13-15-29-32;1,0;45,0;-100;1,0;3,0;0,0;2,0;column;1,0;True;False;True;2,18400001526;True;1,16299986839
BKF1975w;experiment;2017-03-13-15-29-32;1,0;46,0;-100;0,0;3,0;2,0;1,0;column;1,0;False;False;False;3,34699988365;True;0,69000005722
BKF1975w;experiment;2017-03-13-15-29-32;1,0;47,0;-100;0,0;3,0;2,0;1,0;column;1,0;True;False;True;1,28299999237;True;0,759000062943
BKF1975w;experiment;2017-03-13-15-29-32;1,0;48,0;-100;2,0;3,0;1,0;0,0;row;1,0;False;True;False;3,15000009537;True;0,735000133514
BKF1975w;experiment;2017-03-13-15-29-32;2,0;1,0;100;2,0;1,0;3,0;0,0;column;1,0;False;True;False;1,90000009537;True;1,32499980927
BKF1975w;experiment;2017-03-13-15-29-32;2,0;2,0;100;2,0;1,0;3,0;0,0;row;0,0;True;True;False;2,0;False;1,16900014877
BKF1975w;experiment;2017-03-13-15-29-32;2,0;3,0;100;1,0;0,0;3,0;2,0;column;1,0;False;False;False;1,73099994659;True;0,626999855042
BKF1975w;experiment;2017-03-13-15-29-32;2,0;4,0;100;3,0;2,0;1,0;0,0;column;1,0;True;False;True;1,66600012779;True;0,553999900818
BKF1975w;experiment;2017-03-13-15-29-32;2,0;5,0;100;3,0;2,0;0,0;1,0;column;1,0;False;True;True;2,53299999237;False;1,10599994659
BKF1975w;experiment;2017-03-13-15-29-32;2,0;6,0;100;0,0;1,0;3,0;2,0;column;0,0;True;True;True;2,13400006294;True;1,5
BKF1975w;experiment;2017-03-13-15-29-32;2,0;7,0;100;2,0;1,0;0,0;3,0;column;0,0;False;False;False;3,09999990463;True;1,16200017929
BKF1975w;experiment;2017-03-13-15-29-32;2,0;8,0;100;3,0;0,0;1,0;2,0;column;1,0;True;False;True;5,16799998283;True;1,06199979782
BKF1975w;experiment;2017-03-13-15-29-32;2,0;9,0;100;1,0;0,0;3,0;2,0;column;1,0;True;False;False;4,93299984932;False;0,568000078201
BKF1975w;experiment;2017-03-13-15-29-32;2,0;10,0;100;1,0;3,0;2,0;0,0;column;1,0;False;True;True;3,30100011826;False;1,13499999046
BKF1975w;experiment;2017-03-13-15-29-32;2,0;11,0;100;2,0;1,0;0,0;3,0;row;0,0;True;False;False;2,76699995995;False;0,588000059128
BKF1975w;experiment;2017-03-13-15-29-32;2,0;12,0;100;0,0;1,0;2,0;3,0;row;1,0;False;True;False;2,46599984169;True;1,46900010109
BKF1975w;experiment;2017-03-13-15-29-32;2,0;13,0;100;3,0;0,0;1,0;2,0;row;0,0;True;False;True;3,13400006294;True;1,22500014305
BKF1975w;experiment;2017-03-13-15-29-32;2,0;14,0;100;1,0;3,0;2,0;0,0;column;0,0;True;True;True;4,39999985695;True;1,36800003052
BKF1975w;experiment;2017-03-13-15-29-32;2,0;15,0;100;1,0;3,0;0,0;2,0;row;1,0;True;False;False;2,79800009727;False;1,33700013161
BKF1975w;experiment;2017-03-13-15-29-32;2,0;16,0;100;2,0;3,0;1,0;0,0;row;1,0;True;True;False;2,90100002289;False;0,799000024796
BKF1975w;experiment;2017-03-13-15-29-32;2,0;17,0;100;2,0;3,0;0,0;1,0;column;0,0;True;True;False;3,367000103;False;0,894999980927
BKF1975w;experiment;2017-03-13-15-29-32;2,0;18,0;100;1,0;0,0;2,0;3,0;row;1,0;True;True;False;1,73199987411;False;1,16300010681
BKF1975w;experiment;2017-03-13-15-29-32;2,0;19,0;100;1,0;0,0;2,0;3,0;column;1,0;True;True;True;3,00099992752;True;0,536999940872
BKF1975w;experiment;2017-03-13-15-29-32;2,0;20,0;100;1,0;3,0;0,0;2,0;row;0,0;True;True;False;1,60000014305;False;1,26899981499
BKF1975w;experiment;2017-03-13-15-29-32;2,0;21,0;100;2,0;1,0;3,0;0,0;column;0,0;True;False;True;5,5;True;1,09699988365
BKF1975w;experiment;2017-03-13-15-29-32;2,0;22,0;100;3,0;2,0;0,0;1,0;column;0,0;True;True;False;2,7349998951;False;0,634999990463
BKF1975w;experiment;2017-03-13-15-29-32;2,0;23,0;100;3,0;1,0;2,0;0,0;row;0,0;False;True;False;3,06599998474;True;1,3630001545
BKF1975w;experiment;2017-03-13-15-29-32;2,0;24,0;100;3,0;0,0;1,0;2,0;column;0,0;True;True;False;1,56700015068;False;1,26099991798
BKF1975w;experiment;2017-03-13-15-29-32;2,0;25,0;100;1,0;0,0;3,0;2,0;row;0,0;True;True;False;1,66600012779;False;0,903000116348
BKF1975w;experiment;2017-03-13-15-29-32;2,0;26,0;100;1,0;2,0;3,0;0,0;row;1,0;True;True;False;5,0;False;0,598999977112
BKF1975w;experiment;2017-03-13-15-29-32;2,0;27,0;100;3,0;0,0;1,0;2,0;column;1,0;False;False;False;1,86600017548;True;1,17100000381
BKF1975w;experiment;2017-03-13-15-29-32;2,0;28,0;100;3,0;1,0;0,0;2,0;row;0,0;False;True;False;1,23300004005;True;1,29399991035
BKF1975w;experiment;2017-03-13-15-29-32;2,0;29,0;100;1,0;0,0;3,0;2,0;row;0,0;False;False;False;1,8679997921;True;0,931000232697
BKF1975w;experiment;2017-03-13-15-29-32;2,0;30,0;100;0,0;3,0;2,0;1,0;row;0,0;True;True;False;2,26700019836;False;0,762000083923
BKF1975w;experiment;2017-03-13-15-29-32;2,0;31,0;100;3,0;2,0;0,0;1,0;row;1,0;True;True;True;2,76600003242;True;0,539000034332
BKF1975w;experiment;2017-03-13-15-29-32;2,0;32,0;100;0,0;2,0;1,0;3,0;row;0,0;True;True;True;2,33399987221;True;0,770999908447
BKF1975w;experiment;2017-03-13-15-29-32;2,0;33,0;100;1,0;2,0;0,0;3,0;row;0,0;True;False;True;2,19899988174;True;1,10100007057
BKF1975w;experiment;2017-03-13-15-29-32;2,0;34,0;100;3,0;0,0;1,0;2,0;row;0,0;False;False;False;1,59899997711;True;1,29500007629
BKF1975w;experiment;2017-03-13-15-29-32;2,0;35,0;100;0,0;3,0;1,0;2,0;row;1,0;False;False;False;5,632999897;True;1,40000009537
BKF1975w;experiment;2017-03-13-15-29-32;2,0;36,0;100;0,0;3,0;2,0;1,0;column;1,0;False;True;False;2,13199996948;True;0,700999975204
BKF1975w;experiment;2017-03-13-15-29-32;2,0;37,0;100;1,0;0,0;2,0;3,0;row;1,0;False;True;False;3,20000004768;True;1,29699993134
BKF1975w;experiment;2017-03-13-15-29-32;2,0;38,0;100;1,0;0,0;2,0;3,0;column;0,0;True;False;False;3,09999990463;False;1,26999998093
BKF1975w;experiment;2017-03-13-15-29-32;2,0;39,0;100;1,0;2,0;3,0;0,0;column;1,0;True;True;False;2,367000103;False;1,31900000572
BKF1975w;experiment;2017-03-13-15-29-32;2,0;40,0;100;1,0;3,0;2,0;0,0;row;0,0;True;False;True;2,2990000248;True;0,52999997139
BKF1975w;experiment;2017-03-13-15-29-32;2,0;41,0;100;1,0;2,0;3,0;0,0;column;1,0;False;False;False;2,03299999237;True;0,900000095367
BKF1975w;experiment;2017-03-13-15-29-32;2,0;42,0;100;1,0;0,0;2,0;3,0;row;0,0;False;False;False;3,63499999046;True;0,734999895096
BKF1975w;experiment;2017-03-13-15-29-32;2,0;43,0;100;3,0;1,0;0,0;2,0;row;1,0;False;False;False;4,26600003242;True;0,769999980927
BKF1975w;experiment;2017-03-13-15-29-32;2,0;44,0;100;0,0;3,0;1,0;2,0;column;0,0;True;False;True;2,0;True;0,630000114441
BKF1975w;experiment;2017-03-13-15-29-32;2,0;45,0;100;2,0;1,0;0,0;3,0;row;0,0;False;True;False;1,23399996758;True;1,00600004196
BKF1975w;experiment;2017-03-13-15-29-32;2,0;46,0;100;0,0;2,0;1,0;3,0;row;1,0;True;True;True;1,73300004005;True;0,830999851227
BKF1975w;experiment;2017-03-13-15-29-32;2,0;47,0;100;2,0;3,0;1,0;0,0;column;0,0;False;True;False;1,33300018311;True;0,968000173569
BKF1975w;experiment;2017-03-13-15-29-32;2,0;48,0;100;2,0;3,0;0,0;1,0;column;1,0;True;True;True;1,73099994659;True;1,22900009155
BKF1975w;experiment;2017-03-13-15-29-32;3,0;1,0;1000;1,0;3,0;2,0;0,0;row;0,0;False;True;False;1,26600003242;True;0,911999940872
BKF1975w;experiment;2017-03-13-15-29-32;3,0;2,0;1000;3,0;0,0;2,0;1,0;column;0,0;False;True;False;5,09999990463;True;0,527000188828
BKF1975w;experiment;2017-03-13-15-29-32;3,0;3,0;1000;2,0;1,0;3,0;0,0;column;1,0;False;False;True;1,5;False;1,20200014114
BKF1975w;experiment;2017-03-13-15-29-32;3,0;4,0;1000;3,0;0,0;2,0;1,0;column;0,0;True;True;False;2,16700005531;False;1,50300002098
BKF1975w;experiment;2017-03-13-15-29-32;3,0;5,0;1000;1,0;3,0;0,0;2,0;column;0,0;True;False;False;1,46700000763;False;0,630000114441
BKF1975w;experiment;2017-03-13-15-29-32;3,0;6,0;1000;2,0;1,0;0,0;3,0;column;1,0;True;True;True;2,5;True;0,865000009537
BKF1975w;experiment;2017-03-13-15-29-32;3,0;7,0;1000;3,0;1,0;0,0;2,0;row;0,0;True;False;True;2,43300008774;True;0,996000051498
BKF1975w;experiment;2017-03-13-15-29-32;3,0;8,0;1000;2,0;3,0;0,0;1,0;row;1,0;True;False;True;2,40000009537;True;1,20200014114
BKF1975w;experiment;2017-03-13-15-29-32;3,0;9,0;1000;0,0;3,0;1,0;2,0;column;1,0;True;False;True;2,7990000248;True;0,633999824524
BKF1975w;experiment;2017-03-13-15-29-32;3,0;10,0;1000;0,0;3,0;2,0;1,0;row;1,0;True;True;True;5,43299984932;True;1,2990000248
BKF1975w;experiment;2017-03-13-15-29-32;3,0;11,0;1000;0,0;3,0;1,0;2,0;column;0,0;True;True;True;1,7990000248;True;0,963000059128
BKF1975w;experiment;2017-03-13-15-29-32;3,0;12,0;1000;1,0;2,0;0,0;3,0;column;0,0;True;False;True;8,03099989891;True;0,736000061035
BKF1975w;experiment;2017-03-13-15-29-32;3,0;13,0;1000;3,0;0,0;2,0;1,0;row;1,0;True;False;True;1,29999995232;True;1,17700004578
BKF1975w;experiment;2017-03-13-15-29-32;3,0;14,0;1000;0,0;1,0;3,0;2,0;column;1,0;True;False;False;2,40000009537;False;0,670000076294
BKF1975w;experiment;2017-03-13-15-29-32;3,0;15,0;1000;2,0;1,0;3,0;0,0;row;1,0;True;True;True;2,33299994469;True;1,36199998856
BKF1975w;experiment;2017-03-13-15-29-32;3,0;16,0;1000;1,0;2,0;3,0;0,0;row;1,0;True;False;True;2,99900007248;True;0,965000152588
BKF1975w;experiment;2017-03-13-15-29-32;3,0;17,0;1000;0,0;1,0;2,0;3,0;column;0,0;True;False;True;2,66599988937;True;0,793999910355
BKF1975w;experiment;2017-03-13-15-29-32;3,0;18,0;1000;2,0;1,0;3,0;0,0;row;1,0;False;False;True;3,10099983215;False;0,759999990463
BKF1975w;experiment;2017-03-13-15-29-32;3,0;19,0;1000;1,0;2,0;0,0;3,0;row;1,0;False;True;False;3,36699986458;True;1,16299986839
BKF1975w;experiment;2017-03-13-15-29-32;3,0;20,0;1000;1,0;3,0;2,0;0,0;column;1,0;True;False;True;3,10000014305;True;1,00099992752
BKF1975w;experiment;2017-03-13-15-29-32;3,0;21,0;1000;2,0;1,0;3,0;0,0;column;0,0;False;False;True;5,03299999237;False;0,570999860764
BKF1975w;experiment;2017-03-13-15-29-32;3,0;22,0;1000;1,0;3,0;2,0;0,0;row;1,0;False;False;False;3,09899997711;True;0,868000030518
BKF1975w;experiment;2017-03-13-15-29-32;3,0;23,0;1000;2,0;3,0;0,0;1,0;column;0,0;True;True;True;3,33400011063;True;1,36800003052
BKF1975w;experiment;2017-03-13-15-29-32;3,0;24,0;1000;0,0;1,0;3,0;2,0;row;1,0;False;False;False;10,6330001354;True;1,37000012398
BKF1975w;experiment;2017-03-13-15-29-32;3,0;25,0;1000;3,0;2,0;1,0;0,0;row;0,0;False;False;False;4,16699981689;True;1,09299993515
BKF1975w;experiment;2017-03-13-15-29-32;3,0;26,0;1000;2,0;3,0;1,0;0,0;column;1,0;True;False;True;2,03299999237;True;1,46600008011
BKF1975w;experiment;2017-03-13-15-29-32;3,0;27,0;1000;1,0;0,0;3,0;2,0;row;1,0;True;True;False;4,73300004005;False;1,21900010109
BKF1975w;experiment;2017-03-13-15-29-32;3,0;28,0;1000;2,0;0,0;3,0;1,0;row;0,0;False;False;False;4,90000009537;True;0,993000030518
BKF1975w;experiment;2017-03-13-15-29-32;3,0;29,0;1000;1,0;2,0;3,0;0,0;row;0,0;False;True;False;5,50100016594;True;1,33200001717
BKF1975w;experiment;2017-03-13-15-29-32;3,0;30,0;1000;3,0;2,0;0,0;1,0;column;0,0;True;False;True;2,0;True;1,46599984169
BKF1975w;experiment;2017-03-13-15-29-32;3,0;31,0;1000;1,0;0,0;3,0;2,0;column;1,0;False;False;False;4,36599993706;True;1,00200009346
BKF1975w;experiment;2017-03-13-15-29-32;3,0;32,0;1000;3,0;0,0;2,0;1,0;row;0,0;False;True;False;4,90000009537;True;1,33500003815
BKF1975w;experiment;2017-03-13-15-29-32;3,0;33,0;1000;2,0;1,0;3,0;0,0;row;0,0;True;True;False;5,39900016785;False;0,5609998703
BKF1975w;experiment;2017-03-13-15-29-32;3,0;34,0;1000;2,0;3,0;0,0;1,0;row;1,0;False;False;False;2,36699986458;True;0,526000022888
BKF1975w;experiment;2017-03-13-15-29-32;3,0;35,0;1000;3,0;2,0;0,0;1,0;column;1,0;False;True;True;5,2990000248;False;1,30099987984
BKF1975w;experiment;2017-03-13-15-29-32;3,0;36,0;1000;2,0;0,0;3,0;1,0;column;1,0;True;False;False;3,76699995995;False;0,96799993515
BKF1975w;experiment;2017-03-13-15-29-32;3,0;37,0;1000;1,0;3,0;0,0;2,0;column;1,0;False;False;False;2,33299994469;True;1,02900004387
BKF1975w;experiment;2017-03-13-15-29-32;3,0;38,0;1000;0,0;1,0;2,0;3,0;row;1,0;False;False;False;2,79800009727;True;0,730999946594
BKF1975w;experiment;2017-03-13-15-29-32;3,0;39,0;1000;2,0;3,0;0,0;1,0;row;0,0;True;True;False;4,33299994469;False;1,02900004387
BKF1975w;experiment;2017-03-13-15-29-32;3,0;40,0;1000;2,0;0,0;1,0;3,0;column;1,0;True;True;False;1,76699995995;False;0,532999992371
BKF1975w;experiment;2017-03-13-15-29-32;3,0;41,0;1000;2,0;3,0;0,0;1,0;column;1,0;False;False;False;1,89999985695;True;1,50099992752
BKF1975w;experiment;2017-03-13-15-29-32;3,0;42,0;1000;0,0;1,0;3,0;2,0;row;1,0;True;False;False;1,86599993706;False;1,05799984932
BKF1975w;experiment;2017-03-13-15-29-32;3,0;43,0;1000;2,0;0,0;1,0;3,0;column;0,0;False;False;False;2,16499996185;True;1,23500013351
BKF1975w;experiment;2017-03-13-15-29-32;3,0;44,0;1000;1,0;2,0;3,0;0,0;column;0,0;False;False;False;1,76700019836;True;1,16199994087
BKF1975w;experiment;2017-03-13-15-29-32;3,0;45,0;1000;1,0;0,0;2,0;3,0;row;0,0;False;False;False;2,632999897;True;0,565999984741
BKF1975w;experiment;2017-03-13-15-29-32;3,0;46,0;1000;2,0;0,0;1,0;3,0;row;1,0;True;False;False;1,7990000248;False;0,700999975204
BKF1975w;experiment;2017-03-13-15-29-32;3,0;47,0;1000;2,0;1,0;0,0;3,0;row;1,0;False;True;False;3,76699995995;True;0,603000164032
BKF1975w;experiment;2017-03-13-15-29-32;3,0;48,0;1000;1,0;2,0;3,0;0,0;column;0,0;True;False;True;2,66700005531;True;1,0680000782
BKF1975w;experiment;2017-03-13-15-29-32;4,0;1,0;100;2,0;1,0;3,0;0,0;column;1,0;True;False;False;1,29999995232;False;1,13599991798
BKF1975w;experiment;2017-03-13-15-29-32;4,0;2,0;100;1,0;2,0;3,0;0,0;row;1,0;False;True;True;2,19900012016;False;0,800999879837
BKF1975w;experiment;2017-03-13-15-29-32;4,0;3,0;100;1,0;3,0;0,0;2,0;column;1,0;True;True;True;3,26699995995;True;1,20199990273
BKF1975w;experiment;2017-03-13-15-29-32;4,0;4,0;100;1,0;3,0;2,0;0,0;column;0,0;False;True;False;2,90000009537;True;0,865999937057
BKF1975w;experiment;2017-03-13-15-29-32;4,0;5,0;100;2,0;0,0;3,0;1,0;column;1,0;True;False;True;5,03099989891;True;1,13499999046
BKF1975w;experiment;2017-03-13-15-29-32;4,0;6,0;100;0,0;2,0;1,0;3,0;row;0,0;False;True;False;3,7650001049;True;1,19999980927
BKF1975w;experiment;2017-03-13-15-29-32;4,0;7,0;100;3,0;1,0;2,0;0,0;row;1,0;False;False;False;3,66600012779;True;1,33099985123
BKF1975w;experiment;2017-03-13-15-29-32;4,0;8,0;100;2,0;3,0;0,0;1,0;row;1,0;False;False;False;3,90000009537;True;0,699000120163
BKF1975w;experiment;2017-03-13-15-29-32;4,0;9,0;100;2,0;3,0;0,0;1,0;column;1,0;False;False;True;4,60000014305;False;1,37000012398
BKF1975w;experiment;2017-03-13-15-29-32;4,0;10,0;100;3,0;1,0;2,0;0,0;column;0,0;False;False;False;2,09999990463;True;1,37199997902
BKF1975w;experiment;2017-03-13-15-29-32;4,0;11,0;100;0,0;2,0;3,0;1,0;column;0,0;True;False;True;3,30099987984;True;1,09500002861
BKF1975w;experiment;2017-03-13-15-29-32;4,0;12,0;100;2,0;0,0;1,0;3,0;column;1,0;False;False;False;2,66599988937;True;0,634999990463
BKF1975w;experiment;2017-03-13-15-29-32;4,0;13,0;100;2,0;1,0;0,0;3,0;row;1,0;False;False;False;6,13300013542;True;0,990000009537
BKF1975w;experiment;2017-03-13-15-29-32;4,0;14,0;100;1,0;3,0;0,0;2,0;column;0,0;True;True;True;3,00099992752;True;0,927000045776
BKF1975w;experiment;2017-03-13-15-29-32;4,0;15,0;100;0,0;2,0;3,0;1,0;row;0,0;True;False;True;6,80000019073;True;1,1360001564
BKF1975w;experiment;2017-03-13-15-29-32;4,0;16,0;100;1,0;2,0;0,0;3,0;row;1,0;False;True;False;4,57099986076;True;0,531000137329
BKF1975w;experiment;2017-03-13-15-29-32;4,0;17,0;100;3,0;1,0;0,0;2,0;row;1,0;True;True;True;3,23199987411;True;1,03399991989
BKF1975w;experiment;2017-03-13-15-29-32;4,0;18,0;100;2,0;1,0;3,0;0,0;row;1,0;True;False;True;2,99900007248;True;0,736000061035
BKF1975w;experiment;2017-03-13-15-29-32;4,0;19,0;100;3,0;2,0;1,0;0,0;row;1,0;True;True;True;3,50099992752;True;1,47099995613
BKF1975w;experiment;2017-03-13-15-29-32;4,0;20,0;100;3,0;0,0;2,0;1,0;column;1,0;False;False;False;2,367000103;True;1,32699990273
BKF1975w;experiment;2017-03-13-15-29-32;4,0;21,0;100;3,0;1,0;0,0;2,0;column;1,0;True;True;True;1,86599993706;True;1,19400000572
BKF1975w;experiment;2017-03-13-15-29-32;4,0;22,0;100;0,0;3,0;1,0;2,0;row;0,0;False;True;False;2,93499994278;True;1,03000020981
BKF1975w;experiment;2017-03-13-15-29-32;4,0;23,0;100;0,0;1,0;3,0;2,0;column;0,0;False;False;False;2,40000009537;True;0,605000019073
BKF1975w;experiment;2017-03-13-15-29-32;4,0;24,0;100;1,0;0,0;3,0;2,0;row;1,0;True;False;False;2,13399982452;False;0,822999954224
BKF1975w;experiment;2017-03-13-15-29-32;4,0;25,0;100;1,0;2,0;0,0;3,0;column;0,0;True;False;True;2,73099994659;True;0,963999986649
BKF1975w;experiment;2017-03-13-15-29-32;4,0;26,0;100;0,0;3,0;2,0;1,0;column;0,0;False;False;False;1,23300004005;True;0,535000085831
BKF1975w;experiment;2017-03-13-15-29-32;4,0;27,0;100;1,0;2,0;3,0;0,0;column;0,0;False;False;False;1,83299994469;True;1,39700007439
BKF1975w;experiment;2017-03-13-15-29-32;4,0;28,0;100;2,0;1,0;3,0;0,0;row;1,0;False;True;False;2,89999985695;True;1,16600012779
BKF1975w;experiment;2017-03-13-15-29-32;4,0;29,0;100;3,0;1,0;0,0;2,0;column;0,0;True;False;True;3,93399977684;True;1,26700019836
BKF1975w;experiment;2017-03-13-15-29-32;4,0;30,0;100;3,0;0,0;2,0;1,0;column;1,0;True;True;True;1,76700019836;True;1,03699994087
BKF1975w;experiment;2017-03-13-15-29-32;4,0;31,0;100;3,0;1,0;0,0;2,0;row;0,0;True;True;False;1,83400011063;False;0,90499997139
BKF1975w;experiment;2017-03-13-15-29-32;4,0;32,0;100;2,0;0,0;3,0;1,0;row;0,0;True;False;False;3,13199996948;False;0,826999902725
BKF1975w;experiment;2017-03-13-15-29-32;4,0;33,0;100;1,0;0,0;2,0;3,0;column;0,0;False;True;False;2,49800014496;True;0,56200003624
BKF1975w;experiment;2017-03-13-15-29-32;4,0;34,0;100;0,0;1,0;2,0;3,0;column;0,0;True;False;False;1,39800000191;False;0,637000083923
BKF1975w;experiment;2017-03-13-15-29-32;4,0;35,0;100;3,0;2,0;1,0;0,0;column;0,0;False;False;False;1,39899992943;True;0,871000051498
BKF1975w;experiment;2017-03-13-15-29-32;4,0;36,0;100;0,0;3,0;2,0;1,0;row;0,0;False;True;False;0,932999849319;True;1,06200003624
BKF1975w;experiment;2017-03-13-15-29-32;4,0;37,0;100;2,0;0,0;3,0;1,0;column;0,0;False;True;False;1,40000009537;True;1,32999992371
BKF1975w;experiment;2017-03-13-15-29-32;4,0;38,0;100;1,0;3,0;0,0;2,0;column;0,0;False;True;True;5,16799998283;False;1,4960000515
BKF1975w;experiment;2017-03-13-15-29-32;4,0;39,0;100;2,0;1,0;3,0;0,0;column;0,0;False;True;False;2,83200001717;True;0,901000022888
BKF1975w;experiment;2017-03-13-15-29-32;4,0;40,0;100;3,0;1,0;2,0;0,0;row;0,0;True;False;False;4,132999897;False;1,49300003052
BKF1975w;experiment;2017-03-13-15-29-32;4,0;41,0;100;1,0;3,0;0,0;2,0;row;1,0;False;False;False;3,43400001526;True;0,99799990654
BKF1975w;experiment;2017-03-13-15-29-32;4,0;42,0;100;3,0;0,0;2,0;1,0;column;0,0;True;True;True;2,26699995995;True;1,26999998093
BKF1975w;experiment;2017-03-13-15-29-32;4,0;43,0;100;0,0;2,0;3,0;1,0;column;0,0;False;True;True;4,23300004005;False;1,09400010109
BKF1975w;experiment;2017-03-13-15-29-32;4,0;44,0;100;0,0;1,0;3,0;2,0;column;1,0;False;False;False;3,66599988937;True;1,50099992752
BKF1975w;experiment;2017-03-13-15-29-32;4,0;45,0;100;0,0;1,0;3,0;2,0;row;0,0;False;False;False;2,56699991226;True;1,0680000782
BKF1975w;experiment;2017-03-13-15-29-32;4,0;46,0;100;1,0;0,0;3,0;2,0;column;0,0;False;True;False;2,7650001049;True;1,28700017929
BKF1975w;experiment;2017-03-13-15-29-32;4,0;47,0;100;0,0;2,0;3,0;1,0;row;0,0;False;True;False;3,93299984932;True;0,799000024796
BKF1975w;experiment;2017-03-13-15-29-32;4,0;48,0;100;0,0;1,0;2,0;3,0;row;0,0;True;True;True;2,63400006294;True;1,12800002098
BKF1975w;experiment;2017-03-13-15-29-32;5,0;1,0;1000;0,0;3,0;1,0;2,0;row;0,0;True;True;False;4,03399991989;False;1,45399999619
BKF1975w;experiment;2017-03-13-15-29-32;5,0;2,0;1000;1,0;0,0;2,0;3,0;row;0,0;True;True;False;3,2009999752;False;0,957999944687
BKF1975w;experiment;2017-03-13-15-29-32;5,0;3,0;1000;2,0;3,0;0,0;1,0;column;1,0;True;True;True;2,20000004768;True;1,20299983025
BKF1975w;experiment;2017-03-13-15-29-32;5,0;4,0;1000;2,0;3,0;1,0;0,0;row;0,0;False;False;False;3,93300008774;True;0,737999916077
BKF1975w;experiment;2017-03-13-15-29-32;5,0;5,0;1000;2,0;1,0;0,0;3,0;row;0,0;True;True;False;2,40000009537;False;0,601000070572
BKF1975w;experiment;2017-03-13-15-29-32;5,0;6,0;1000;3,0;0,0;1,0;2,0;column;0,0;False;False;False;4,16400003433;True;1,09600019455
BKF1975w;experiment;2017-03-13-15-29-32;5,0;7,0;1000;0,0;1,0;2,0;3,0;column;1,0;True;False;True;2,00100016594;True;0,969000101089
BKF1975w;experiment;2017-03-13-15-29-32;5,0;8,0;1000;1,0;0,0;3,0;2,0;row;0,0;True;True;True;3,63100004196;True;0,828999996185
BKF1975w;experiment;2017-03-13-15-29-32;5,0;9,0;1000;0,0;2,0;1,0;3,0;column;1,0;True;False;True;1,40000009537;True;1,03299999237
BKF1975w;experiment;2017-03-13-15-29-32;5,0;10,0;1000;1,0;3,0;2,0;0,0;column;1,0;False;False;False;1,43400001526;True;1,3029999733
BKF1975w;experiment;2017-03-13-15-29-32;5,0;11,0;1000;0,0;2,0;1,0;3,0;row;1,0;True;True;False;6,86599993706;False;0,501000165939
BKF1975w;experiment;2017-03-13-15-29-32;5,0;12,0;1000;0,0;2,0;3,0;1,0;column;1,0;True;False;True;2,16699981689;True;0,726000070572
BKF1975w;experiment;2017-03-13-15-29-32;5,0;13,0;1000;3,0;0,0;1,0;2,0;column;0,0;True;True;True;3,76600003242;True;0,763999938965
BKF1975w;experiment;2017-03-13-15-29-32;5,0;14,0;1000;1,0;0,0;3,0;2,0;column;1,0;True;False;False;2,96700000763;False;1,33299994469
BKF1975w;experiment;2017-03-13-15-29-32;5,0;15,0;1000;2,0;0,0;1,0;3,0;column;0,0;True;True;True;3,19999980927;True;0,529000043869
BKF1975w;experiment;2017-03-13-15-29-32;5,0;16,0;1000;2,0;0,0;3,0;1,0;row;0,0;True;False;True;1,89999985695;True;0,570999860764
BKF1975w;experiment;2017-03-13-15-29-32;5,0;17,0;1000;2,0;1,0;0,0;3,0;column;0,0;True;False;True;2,43400001526;True;0,700999975204
BKF1975w;experiment;2017-03-13-15-29-32;5,0;18,0;1000;3,0;2,0;0,0;1,0;row;0,0;False;True;False;1,53299999237;True;1,36800003052
BKF1975w;experiment;2017-03-13-15-29-32;5,0;19,0;1000;1,0;2,0;3,0;0,0;column;1,0;True;True;True;2,26600003242;True;0,962000131607
BKF1975w;experiment;2017-03-13-15-29-32;5,0;20,0;1000;2,0;3,0;1,0;0,0;column;1,0;False;False;False;1,89999985695;True;0,798000097275
BKF1975w;experiment;2017-03-13-15-29-32;5,0;21,0;1000;3,0;0,0;1,0;2,0;row;1,0;False;False;False;6,10000014305;True;1,29800009727
BKF1975w;experiment;2017-03-13-15-29-32;5,0;22,0;1000;2,0;1,0;0,0;3,0;row;0,0;False;False;False;2,76699995995;True;0,728999853134
BKF1975w;experiment;2017-03-13-15-29-32;5,0;23,0;1000;0,0;1,0;3,0;2,0;row;0,0;True;True;True;7,13300013542;True;1,20199990273
BKF1975w;experiment;2017-03-13-15-29-32;5,0;24,0;1000;1,0;0,0;3,0;2,0;column;0,0;False;False;False;3,53399991989;True;1,39399981499
BKF1975w;experiment;2017-03-13-15-29-32;5,0;25,0;1000;3,0;2,0;1,0;0,0;row;1,0;True;True;True;6,53199982643;True;0,97000002861
BKF1975w;experiment;2017-03-13-15-29-32;5,0;26,0;1000;1,0;0,0;2,0;3,0;row;1,0;True;True;True;3,29999995232;True;1,2009999752
BKF1975w;experiment;2017-03-13-15-29-32;5,0;27,0;1000;1,0;3,0;0,0;2,0;column;1,0;True;False;True;3,16599988937;True;1,10500001907
BKF1975w;experiment;2017-03-13-15-29-32;5,0;28,0;1000;2,0;3,0;0,0;1,0;row;0,0;False;True;False;6,59800004959;True;1,50199985504
BKF1975w;experiment;2017-03-13-15-29-32;5,0;29,0;1000;2,0;0,0;1,0;3,0;row;0,0;False;True;False;7,76699995995;True;1,2619998455
BKF1975w;experiment;2017-03-13-15-29-32;5,0;30,0;1000;3,0;0,0;2,0;1,0;column;1,0;True;True;True;3,76600003242;True;0,565999984741
BKF1975w;experiment;2017-03-13-15-29-32;5,0;31,0;1000;3,0;1,0;2,0;0,0;row;0,0;False;True;False;3,46599984169;True;1,39700007439
BKF1975w;experiment;2017-03-13-15-29-32;5,0;32,0;1000;0,0;2,0;1,0;3,0;row;0,0;False;True;False;4,56399989128;True;0,698999881744
BKF1975w;experiment;2017-03-13-15-29-32;5,0;33,0;1000;3,0;2,0;1,0;0,0;row;1,0;False;True;False;5,73300004005;True;0,601000070572
BKF1975w;experiment;2017-03-13-15-29-32;5,0;34,0;1000;3,0;0,0;1,0;2,0;row;1,0;True;True;True;6,36600017548;True;1,32800006866
BKF1975w;experiment;2017-03-13-15-29-32;5,0;35,0;1000;0,0;3,0;2,0;1,0;row;1,0;False;False;False;6,49900007248;True;1,3029999733
BKF1975w;experiment;2017-03-13-15-29-32;5,0;36,0;1000;0,0;3,0;1,0;2,0;row;0,0;False;True;False;5,26600003242;True;1,29699993134
BKF1975w;experiment;2017-03-13-15-29-32;5,0;37,0;1000;3,0;2,0;1,0;0,0;column;1,0;False;True;False;4,7009999752;True;0,834000110626
BKF1975w;experiment;2017-03-13-15-29-32;5,0;38,0;1000;3,0;0,0;1,0;2,0;row;0,0;True;True;True;3,53299999237;True;1,00600004196
BKF1975w;experiment;2017-03-13-15-29-32;5,0;39,0;1000;1,0;0,0;2,0;3,0;row;1,0;False;True;False;4,73099994659;True;0,769000053406
BKF1975w;experiment;2017-03-13-15-29-32;5,0;40,0;1000;2,0;0,0;3,0;1,0;row;1,0;True;False;True;4,70000004768;True;1,33600020409
BKF1975w;experiment;2017-03-13-15-29-32;5,0;41,0;1000;0,0;3,0;2,0;1,0;column;0,0;False;True;True;5,0680000782;False;0,929000139236
BKF1975w;experiment;2017-03-13-15-29-32;5,0;42,0;1000;3,0;1,0;2,0;0,0;column;1,0;True;False;True;3,76699995995;True;0,700999975204
BKF1975w;experiment;2017-03-13-15-29-32;5,0;43,0;1000;3,0;1,0;2,0;0,0;row;1,0;True;False;True;4,5680000782;True;0,734999895096
BKF1975w;experiment;2017-03-13-15-29-32;5,0;44,0;1000;1,0;0,0;2,0;3,0;column;1,0;False;False;False;3,46700000763;True;0,700999975204
BKF1975w;experiment;2017-03-13-15-29-32;5,0;45,0;1000;0,0;2,0;1,0;3,0;row;0,0;True;True;True;9,43400001526;True;1,39700007439
BKF1975w;experiment;2017-03-13-15-29-32;5,0;46,0;1000;1,0;2,0;0,0;3,0;row;0,0;True;False;True;4,16599988937;True;1,30199980736
BKF1975w;experiment;2017-03-13-15-29-32;5,0;47,0;1000;1,0;2,0;0,0;3,0;column;1,0;False;True;True;3,90100002289;False;0,736000061035
BKF1975w;experiment;2017-03-13-15-29-32;5,0;48,0;1000;0,0;3,0;1,0;2,0;row;1,0;True;False;False;5,20000004768;False;1,3259999752
BKF1975w;experiment;2017-03-13-15-29-32;6,0;1,0;-100;0,0;3,0;1,0;2,0;column;0,0;True;True;True;5,41799998283;True;0,964000225067
BKF1975w;experiment;2017-03-13-15-29-32;6,0;2,0;-100;0,0;2,0;1,0;3,0;row;0,0;False;False;False;5,21599984169;True;1,0680000782
BKF1975w;experiment;2017-03-13-15-29-32;6,0;3,0;-100;3,0;1,0;0,0;2,0;column;0,0;True;False;True;6,11800003052;True;0,569999933243
BKF1975w;experiment;2017-03-13-15-29-32;6,0;4,0;-100;2,0;1,0;0,0;3,0;column;0,0;True;True;True;3,31500005722;True;0,891999959946
BKF1975w;experiment;2017-03-13-15-29-32;6,0;5,0;-100;3,0;2,0;1,0;0,0;column;0,0;True;True;True;2,25;True;0,838000059128
BKF1975w;experiment;2017-03-13-15-29-32;6,0;6,0;-100;3,0;0,0;1,0;2,0;column;1,0;True;True;True;3,48399996758;True;0,736000061035
BKF1975w;experiment;2017-03-13-15-29-32;6,0;7,0;-100;2,0;1,0;3,0;0,0;row;0,0;True;False;True;4,14999985695;True;0,934000015259
BKF1975w;experiment;2017-03-13-15-29-32;6,0;8,0;-100;0,0;1,0;3,0;2,0;row;0,0;False;False;False;3,74900007248;True;0,667999982834
BKF1975w;experiment;2017-03-13-15-29-32;6,0;9,0;-100;0,0;2,0;3,0;1,0;column;1,0;True;False;True;2,78200006485;True;1,43400001526
BKF1975w;experiment;2017-03-13-15-29-32;6,0;10,0;-100;0,0;3,0;1,0;2,0;row;0,0;False;False;False;6,98300004005;True;0,668999910355
BKF1975w;experiment;2017-03-13-15-29-32;6,0;11,0;-100;2,0;0,0;3,0;1,0;row;0,0;False;False;True;5,71799993515;False;1,42900013924
BKF1975w;experiment;2017-03-13-15-29-32;6,0;12,0;-100;3,0;0,0;2,0;1,0;column;0,0;False;True;False;2,77999997139;True;1,43099999428
BKF1975w;experiment;2017-03-13-15-29-32;6,0;13,0;-100;3,0;1,0;2,0;0,0;row;1,0;True;False;True;6,85100007057;True;1,09899997711
BKF1975w;experiment;2017-03-13-15-29-32;6,0;14,0;-100;0,0;3,0;2,0;1,0;column;0,0;False;True;False;3,81700015068;True;0,667999982834
BKF1975w;experiment;2017-03-13-15-29-32;6,0;15,0;-100;1,0;0,0;3,0;2,0;column;0,0;True;False;True;2,61500000954;True;1,36999988556
BKF1975w;experiment;2017-03-13-15-29-32;6,0;16,0;-100;2,0;1,0;0,0;3,0;column;1,0;False;False;False;4,48399996758;True;0,538000106812
BKF1975w;experiment;2017-03-13-15-29-32;6,0;17,0;-100;2,0;1,0;3,0;0,0;row;1,0;False;False;False;7,54600000381;True;0,889999866486
BKF1975w;experiment;2017-03-13-15-29-32;6,0;18,0;-100;0,0;2,0;1,0;3,0;row;1,0;False;False;False;6,64899992943;True;1,16000008583
BKF1975w;experiment;2017-03-13-15-29-32;6,0;19,0;-100;1,0;3,0;0,0;2,0;column;0,0;True;True;True;2,71700000763;True;0,585999965668
BKF1975w;experiment;2017-03-13-15-29-32;6,0;20,0;-100;0,0;1,0;3,0;2,0;column;0,0;True;False;True;1,65000009537;True;1,28600001335
BKF1975w;experiment;2017-03-13-15-29-32;6,0;21,0;-100;0,0;1,0;2,0;3,0;column;0,0;True;False;True;1,54999995232;True;1,43600010872
BKF1975w;experiment;2017-03-13-15-29-32;6,0;22,0;-100;2,0;3,0;0,0;1,0;row;1,0;False;True;False;1,94899988174;True;0,93799996376
BKF1975w;experiment;2017-03-13-15-29-32;6,0;23,0;-100;1,0;0,0;2,0;3,0;row;0,0;True;False;True;5,58100008965;True;0,894000053406
BKF1975w;experiment;2017-03-13-15-29-32;6,0;24,0;-100;3,0;0,0;2,0;1,0;row;1,0;True;True;True;3,38100004196;True;1,36800003052
BKF1975w;experiment;2017-03-13-15-29-32;6,0;25,0;-100;3,0;2,0;1,0;0,0;row;0,0;True;False;True;3,84999990463;True;0,660000085831
BKF1975w;experiment;2017-03-13-15-29-32;6,0;26,0;-100;1,0;2,0;0,0;3,0;column;1,0;True;False;False;1,78400015831;False;0,537999868393
BKF1975w;experiment;2017-03-13-15-29-32;6,0;27,0;-100;1,0;0,0;3,0;2,0;row;1,0;True;True;True;3,04799985886;True;0,669999837875
BKF1975w;experiment;2017-03-13-15-29-32;6,0;28,0;-100;0,0;2,0;3,0;1,0;row;1,0;True;True;False;4,18300008774;False;1,26799988747
BKF1975w;experiment;2017-03-13-15-29-32;6,0;29,0;-100;2,0;3,0;1,0;0,0;row;0,0;False;True;False;4,68000006676;True;0,634999990463
BKF1975w;experiment;2017-03-13-15-29-32;6,0;30,0;-100;1,0;2,0;3,0;0,0;column;0,0;False;False;False;3,94899988174;True;1,36900019646
BKF1975w;experiment;2017-03-13-15-29-32;6,0;31,0;-100;0,0;1,0;2,0;3,0;row;0,0;False;False;False;5,78400015831;True;0,601000070572
BKF1975w;experiment;2017-03-13-15-29-32;6,0;32,0;-100;3,0;2,0;0,0;1,0;row;0,0;False;True;False;6,25;True;1,43600010872
BKF1975w;experiment;2017-03-13-15-29-32;6,0;33,0;-100;0,0;2,0;3,0;1,0;column;0,0;False;True;False;1,68300008774;True;1,09800004959
BKF1975w;experiment;2017-03-13-15-29-32;6,0;34,0;-100;3,0;0,0;2,0;1,0;row;1,0;False;True;False;3,48399996758;True;1,36800003052
BKF1975w;experiment;2017-03-13-15-29-32;6,0;35,0;-100;0,0;2,0;1,0;3,0;column;0,0;False;True;False;2,41700005531;True;0,526000022888
BKF1975w;experiment;2017-03-13-15-29-32;6,0;36,0;-100;3,0;1,0;0,0;2,0;row;1,0;False;False;False;1,71700000763;True;1,10100007057
BKF1975w;experiment;2017-03-13-15-29-32;6,0;37,0;-100;1,0;2,0;3,0;0,0;row;0,0;True;True;False;2,08299994469;False;1,36299991608
BKF1975w;experiment;2017-03-13-15-29-32;6,0;38,0;-100;1,0;0,0;2,0;3,0;column;1,0;False;True;False;2,11599993706;True;0,636999845505
BKF1975w;experiment;2017-03-13-15-29-32;6,0;39,0;-100;0,0;1,0;2,0;3,0;row;1,0;False;True;False;2,4849998951;True;1,0640001297
BKF1975w;experiment;2017-03-13-15-29-32;6,0;40,0;-100;2,0;0,0;1,0;3,0;column;1,0;False;False;False;3,78399991989;True;1,39400005341
BKF1975w;experiment;2017-03-13-15-29-32;6,0;41,0;-100;3,0;1,0;0,0;2,0;column;0,0;False;False;False;2,08299994469;True;0,825999975204
BKF1975w;experiment;2017-03-13-15-29-32;6,0;42,0;-100;1,0;3,0;2,0;0,0;row;1,0;True;False;False;1,78400015831;False;1,06700015068
BKF1975w;experiment;2017-03-13-15-29-32;6,0;43,0;-100;2,0;1,0;0,0;3,0;row;0,0;False;True;True;2,38400006294;False;0,662999868393
BKF1975w;experiment;2017-03-13-15-29-32;6,0;44,0;-100;3,0;0,0;1,0;2,0;column;0,0;False;False;False;1,65000009537;True;0,604000091553
BKF1975w;experiment;2017-03-13-15-29-32;6,0;45,0;-100;2,0;3,0;1,0;0,0;column;1,0;False;False;False;2,382999897;True;0,892999887466
BKF1975w;experiment;2017-03-13-15-29-32;6,0;46,0;-100;2,0;3,0;1,0;0,0;column;0,0;False;False;False;1,38300013542;True;1,00200009346
BKF1975w;experiment;2017-03-13-15-29-32;6,0;47,0;-100;3,0;0,0;1,0;2,0;row;1,0;True;True;False;2,08100008965;False;1,22099995613
BKF1975w;experiment;2017-03-13-15-29-32;6,0;48,0;-100;2,0;1,0;3,0;0,0;column;0,0;False;True;False;7,04999995232;True;0,658999919891
BKF1975w;experiment;2017-03-13-15-29-32;7,0;1,0;-100;1,0;3,0;0,0;2,0;column;0,0;False;False;False;1,24900007248;True;0,901000022888
BKF1975w;experiment;2017-03-13-15-29-32;7,0;2,0;-100;1,0;2,0;3,0;0,0;column;1,0;True;False;False;2,51600003242;False;1,40499997139
BKF1975w;experiment;2017-03-13-15-29-32;7,0;3,0;-100;0,0;2,0;3,0;1,0;row;0,0;True;True;True;4,21700000763;True;0,598000049591
BKF1975w;experiment;2017-03-13-15-29-32;7,0;4,0;-100;3,0;1,0;0,0;2,0;column;1,0;True;False;True;4,51499986649;True;1,39899992943
BKF1975w;experiment;2017-03-13-15-29-32;7,0;5,0;-100;1,0;0,0;3,0;2,0;row;1,0;False;False;False;4,58299994469;True;0,594000101089
BKF1975w;experiment;2017-03-13-15-29-32;7,0;6,0;-100;1,0;3,0;2,0;0,0;column;0,0;True;True;True;1,98399996758;True;0,536999940872
BKF1975w;experiment;2017-03-13-15-29-32;7,0;7,0;-100;3,0;0,0;1,0;2,0;row;0,0;False;True;False;5,25900006294;True;0,595999956131
BKF1975w;experiment;2017-03-13-15-29-32;7,0;8,0;-100;0,0;3,0;1,0;2,0;column;0,0;False;True;False;2,15000009537;True;0,668999910355
BKF1975w;experiment;2017-03-13-15-29-32;7,0;9,0;-100;0,0;2,0;3,0;1,0;row;0,0;False;True;False;5,51600003242;True;0,706000089645
BKF1975w;experiment;2017-03-13-15-29-32;7,0;10,0;-100;0,0;3,0;2,0;1,0;row;1,0;False;True;True;7,08399987221;False;1,03600001335
BKF1975w;experiment;2017-03-13-15-29-32;7,0;11,0;-100;3,0;2,0;1,0;0,0;row;1,0;False;False;False;3,25;True;1,49300003052
BKF1975w;experiment;2017-03-13-15-29-32;7,0;12,0;-100;3,0;2,0;0,0;1,0;column;1,0;False;False;False;2,81699991226;True;0,995000123978
BKF1975w;experiment;2017-03-13-15-29-32;7,0;13,0;-100;3,0;2,0;0,0;1,0;column;0,0;False;False;True;2,75;False;1,03499984741
BKF1975w;experiment;2017-03-13-15-29-32;7,0;14,0;-100;2,0;1,0;0,0;3,0;row;1,0;True;True;False;3,91700005531;False;1,20200014114
BKF1975w;experiment;2017-03-13-15-29-32;7,0;15,0;-100;3,0;1,0;0,0;2,0;row;1,0;True;False;True;4,84999990463;True;0,866999864578
BKF1975w;experiment;2017-03-13-15-29-32;7,0;16,0;-100;3,0;1,0;0,0;2,0;row;0,0;True;True;True;4,21700000763;True;0,867000102997
BKF1975w;experiment;2017-03-13-15-29-32;7,0;17,0;-100;2,0;0,0;3,0;1,0;column;1,0;False;False;True;3,84999990463;False;0,53200006485
BKF1975w;experiment;2017-03-13-15-29-32;7,0;18,0;-100;0,0;1,0;3,0;2,0;column;0,0;False;False;False;3,74899983406;True;1,02799987793
BKF1975w;experiment;2017-03-13-15-29-32;7,0;19,0;-100;2,0;1,0;3,0;0,0;column;1,0;True;False;True;3,64800000191;True;1,36100006104
BKF1975w;experiment;2017-03-13-15-29-32;7,0;20,0;-100;3,0;0,0;1,0;2,0;column;0,0;True;False;True;3,21700000763;True;0,701999902725
BKF1975w;experiment;2017-03-13-15-29-32;7,0;21,0;-100;3,0;2,0;0,0;1,0;row;1,0;False;True;False;7,08400011063;True;0,566999912262
BKF1975w;experiment;2017-03-13-15-29-32;7,0;22,0;-100;2,0;1,0;0,0;3,0;column;1,0;True;False;True;3,98300004005;True;0,802000045776
BKF1975w;experiment;2017-03-13-15-29-32;7,0;23,0;-100;3,0;2,0;1,0;0,0;row;0,0;False;False;False;3,94899988174;True;0,826999902725
BKF1975w;experiment;2017-03-13-15-29-32;7,0;24,0;-100;2,0;0,0;1,0;3,0;column;1,0;True;False;False;3,41499996185;False;1,30100011826
BKF1975w;experiment;2017-03-13-15-29-32;7,0;25,0;-100;2,0;1,0;3,0;0,0;row;0,0;False;True;False;2,88400006294;True;0,794000148773
BKF1975w;experiment;2017-03-13-15-29-32;7,0;26,0;-100;2,0;1,0;0,0;3,0;column;0,0;False;True;False;2,41799998283;True;0,728999853134
BKF1975w;experiment;2017-03-13-15-29-32;7,0;27,0;-100;1,0;3,0;2,0;0,0;column;0,0;False;True;False;3,34999990463;True;0,52799987793
BKF1975w;experiment;2017-03-13-15-29-32;7,0;28,0;-100;2,0;3,0;0,0;1,0;column;0,0;False;False;False;1,08099985123;True;0,865999937057
BKF1975w;experiment;2017-03-13-15-29-32;7,0;29,0;-100;0,0;1,0;3,0;2,0;row;1,0;True;True;True;4,71599984169;True;1,03099989891
BKF1975w;experiment;2017-03-13-15-29-32;7,0;30,0;-100;3,0;0,0;2,0;1,0;column;1,0;True;False;False;2,54999995232;False;0,735000133514
BKF1975w;experiment;2017-03-13-15-29-32;7,0;31,0;-100;2,0;3,0;0,0;1,0;row;1,0;True;True;True;2,41600012779;True;0,836999893188
BKF1975w;experiment;2017-03-13-15-29-32;7,0;32,0;-100;0,0;1,0;2,0;3,0;row;1,0;True;True;True;2,94600009918;True;0,532999992371
BKF1975w;experiment;2017-03-13-15-29-32;7,0;33,0;-100;2,0;3,0;0,0;1,0;column;1,0;False;False;False;2,34899997711;True;1,27099990845
BKF1975w;experiment;2017-03-13-15-29-32;7,0;34,0;-100;0,0;3,0;1,0;2,0;row;1,0;True;False;True;2,41700005531;True;1,29099988937
BKF1975w;experiment;2017-03-13-15-29-32;7,0;35,0;-100;1,0;0,0;2,0;3,0;column;1,0;True;True;False;2,41700005531;False;1,3069999218
BKF1975w;experiment;2017-03-13-15-29-32;7,0;36,0;-100;0,0;3,0;2,0;1,0;row;1,0;True;True;False;3,05099987984;False;0,862999916077
BKF1975w;experiment;2017-03-13-15-29-32;7,0;37,0;-100;0,0;2,0;1,0;3,0;row;1,0;True;False;True;5,85000014305;True;1,03600001335
BKF1975w;experiment;2017-03-13-15-29-32;7,0;38,0;-100;2,0;3,0;1,0;0,0;column;0,0;True;False;False;1,68400001526;False;0,569000005722
BKF1975w;experiment;2017-03-13-15-29-32;7,0;39,0;-100;1,0;3,0;2,0;0,0;row;1,0;False;False;False;1,41599988937;True;0,703999996185
BKF1975w;experiment;2017-03-13-15-29-32;7,0;40,0;-100;3,0;1,0;2,0;0,0;column;1,0;False;False;False;3,91700005531;True;0,763000011444
BKF1975w;experiment;2017-03-13-15-29-32;7,0;41,0;-100;1,0;2,0;3,0;0,0;column;1,0;False;False;False;3,05099987984;True;1,17000007629
BKF1975w;experiment;2017-03-13-15-29-32;7,0;42,0;-100;0,0;2,0;1,0;3,0;column;1,0;True;True;True;3,58200001717;True;1,36100006104
BKF1975w;experiment;2017-03-13-15-29-32;7,0;43,0;-100;1,0;2,0;3,0;0,0;row;1,0;True;False;True;3,81599998474;True;1,17200016975
BKF1975w;experiment;2017-03-13-15-29-32;7,0;44,0;-100;0,0;1,0;2,0;3,0;row;0,0;True;False;True;4,61500000954;True;0,898000001907
BKF1975w;experiment;2017-03-13-15-29-32;7,0;45,0;-100;3,0;0,0;2,0;1,0;column;1,0;False;False;False;4,51499986649;True;0,537000179291
BKF1975w;experiment;2017-03-13-15-29-32;7,0;46,0;-100;0,0;3,0;1,0;2,0;row;0,0;True;False;True;3,48399996758;True;0,701000213623
BKF1975w;experiment;2017-03-13-15-29-32;7,0;47,0;-100;0,0;2,0;1,0;3,0;column;1,0;False;False;False;7,44899988174;True;0,535000085831
BKF1975w;experiment;2017-03-13-15-29-32;7,0;48,0;-100;2,0;3,0;0,0;1,0;column;0,0;True;True;True;1,58400011063;True;0,569999933243
BKF1975w;experiment;2017-03-13-15-29-32;8,0;1,0;1000;2,0;3,0;1,0;0,0;row;0,0;True;True;True;4,0;True;0,594000101089
BKF1975w;experiment;2017-03-13-15-29-32;8,0;2,0;1000;1,0;3,0;2,0;0,0;row;1,0;True;False;True;2,96600008011;True;0,932999849319
BKF1975w;experiment;2017-03-13-15-29-32;8,0;3,0;1000;2,0;0,0;1,0;3,0;row;1,0;False;True;False;3,23300004005;True;1,46800017357
BKF1975w;experiment;2017-03-13-15-29-32;8,0;4,0;1000;3,0;1,0;0,0;2,0;row;0,0;False;True;False;2,39999985695;True;0,623999834061
BKF1975w;experiment;2017-03-13-15-29-32;8,0;5,0;1000;3,0;2,0;0,0;1,0;row;1,0;True;True;False;2,73299980164;False;0,694000005722
BKF1975w;experiment;2017-03-13-15-29-32;8,0;6,0;1000;0,0;1,0;2,0;3,0;column;0,0;False;False;False;1,29999995232;True;0,901999950409
BKF1975w;experiment;2017-03-13-15-29-32;8,0;7,0;1000;1,0;3,0;2,0;0,0;column;0,0;False;False;False;2,86599993706;True;1,20399999619
BKF1975w;experiment;2017-03-13-15-29-32;8,0;8,0;1000;3,0;1,0;0,0;2,0;column;1,0;True;False;True;2,29999995232;True;1,0689997673
BKF1975w;experiment;2017-03-13-15-29-32;8,0;9,0;1000;3,0;0,0;1,0;2,0;row;0,0;False;True;False;3,63499999046;True;0,601999998093
BKF1975w;experiment;2017-03-13-15-29-32;8,0;10,0;1000;2,0;0,0;3,0;1,0;column;1,0;False;True;True;4,69799995422;False;1,125
BKF1975w;experiment;2017-03-13-15-29-32;8,0;11,0;1000;1,0;2,0;0,0;3,0;column;1,0;True;False;True;4,26800012589;True;1,50099992752
BKF1975w;experiment;2017-03-13-15-29-32;8,0;12,0;1000;0,0;2,0;3,0;1,0;row;0,0;False;True;False;4,72800016403;True;1,00699996948
BKF1975w;experiment;2017-03-13-15-29-32;8,0;13,0;1000;0,0;2,0;3,0;1,0;column;0,0;True;False;True;1,56599998474;True;0,93799996376
BKF1975w;experiment;2017-03-13-15-29-32;8,0;14,0;1000;0,0;3,0;2,0;1,0;row;0,0;True;True;False;3,96599984169;False;1,46000003815
BKF1975w;experiment;2017-03-13-15-29-32;8,0;15,0;1000;2,0;3,0;0,0;1,0;column;0,0;False;False;False;1,33299994469;True;1,03099989891
BKF1975w;experiment;2017-03-13-15-29-32;8,0;16,0;1000;2,0;1,0;0,0;3,0;column;1,0;False;True;True;2,16700005531;False;1,36199998856
BKF1975w;experiment;2017-03-13-15-29-32;8,0;17,0;1000;2,0;1,0;0,0;3,0;row;1,0;True;True;True;2,86699986458;True;1,10100007057
BKF1975w;experiment;2017-03-13-15-29-32;8,0;18,0;1000;2,0;3,0;1,0;0,0;column;0,0;False;False;False;4,5680000782;True;1,5
BKF1975w;experiment;2017-03-13-15-29-32;8,0;19,0;1000;0,0;2,0;3,0;1,0;column;1,0;False;False;False;3,367000103;True;1,2009999752
BKF1975w;experiment;2017-03-13-15-29-32;8,0;20,0;1000;1,0;0,0;3,0;2,0;row;0,0;False;True;False;2,93300008774;True;0,769000053406
BKF1975w;experiment;2017-03-13-15-29-32;8,0;21,0;1000;3,0;0,0;2,0;1,0;column;1,0;False;True;False;2,46599984169;True;0,835000038147
BKF1975w;experiment;2017-03-13-15-29-32;8,0;22,0;1000;0,0;1,0;3,0;2,0;column;0,0;False;True;False;2,06700015068;True;0,804000139236
BKF1975w;experiment;2017-03-13-15-29-32;8,0;23,0;1000;2,0;3,0;1,0;0,0;column;0,0;True;True;True;1,36599993706;True;1,36800003052
BKF1975w;experiment;2017-03-13-15-29-32;8,0;24,0;1000;1,0;3,0;0,0;2,0;row;1,0;False;False;False;2,50099992752;True;0,55999994278
BKF1975w;experiment;2017-03-13-15-29-32;8,0;25,0;1000;2,0;0,0;3,0;1,0;column;0,0;False;True;False;2,03300023079;True;1,40300011635
BKF1975w;experiment;2017-03-13-15-29-32;8,0;26,0;1000;1,0;2,0;3,0;0,0;column;1,0;False;False;False;2,36699986458;True;0,698000192642
BKF1975w;experiment;2017-03-13-15-29-32;8,0;27,0;1000;0,0;2,0;1,0;3,0;column;0,0;True;False;True;1,93299984932;True;1,13700008392
BKF1975w;experiment;2017-03-13-15-29-32;8,0;28,0;1000;0,0;2,0;3,0;1,0;row;0,0;True;True;True;4,23199987411;True;0,569999933243
BKF1975w;experiment;2017-03-13-15-29-32;8,0;29,0;1000;2,0;3,0;1,0;0,0;row;1,0;False;True;False;5,49599981308;True;1,33999991417
BKF1975w;experiment;2017-03-13-15-29-32;8,0;30,0;1000;0,0;3,0;2,0;1,0;column;1,0;False;False;False;11,4010000229;True;0,700000047684
BKF1975w;experiment;2017-03-13-15-29-32;8,0;31,0;1000;1,0;2,0;0,0;3,0;column;0,0;False;False;False;1,56699991226;True;0,832999944687
BKF1975w;experiment;2017-03-13-15-29-32;8,0;32,0;1000;1,0;2,0;0,0;3,0;row;0,0;False;True;False;2,56599998474;True;1,30099987984
BKF1975w;experiment;2017-03-13-15-29-32;8,0;33,0;1000;0,0;1,0;3,0;2,0;column;0,0;True;True;True;1,367000103;True;0,859999895096
BKF1975w;experiment;2017-03-13-15-29-32;8,0;34,0;1000;3,0;1,0;2,0;0,0;row;1,0;False;False;False;1,46599984169;True;1,00199985504
BKF1975w;experiment;2017-03-13-15-29-32;8,0;35,0;1000;2,0;1,0;3,0;0,0;column;0,0;True;True;True;1,132999897;True;0,636999845505
BKF1975w;experiment;2017-03-13-15-29-32;8,0;36,0;1000;0,0;2,0;3,0;1,0;row;1,0;False;False;False;1,69999980927;True;0,764000177383
BKF1975w;experiment;2017-03-13-15-29-32;8,0;37,0;1000;3,0;1,0;2,0;0,0;row;0,0;True;False;True;2,46600008011;True;0,55999994278
BKF1975w;experiment;2017-03-13-15-29-32;8,0;38,0;1000;3,0;0,0;1,0;2,0;column;1,0;False;True;False;2,367000103;True;0,802999973297
BKF1975w;experiment;2017-03-13-15-29-32;8,0;39,0;1000;2,0;0,0;1,0;3,0;column;1,0;False;False;True;2,0;False;0,571000099182
BKF1975w;experiment;2017-03-13-15-29-32;8,0;40,0;1000;0,0;3,0;1,0;2,0;column;0,0;False;False;False;2,69999980927;True;1,36599993706
BKF1975w;experiment;2017-03-13-15-29-32;8,0;41,0;1000;3,0;1,0;2,0;0,0;column;1,0;False;True;True;2,20000004768;False;0,898999929428
BKF1975w;experiment;2017-03-13-15-29-32;8,0;42,0;1000;3,0;2,0;1,0;0,0;column;0,0;True;True;True;1,69999980927;True;0,938000202179
BKF1975w;experiment;2017-03-13-15-29-32;8,0;43,0;1000;1,0;3,0;2,0;0,0;column;0,0;True;False;True;0,964999914169;True;0,897000074387
BKF1975w;experiment;2017-03-13-15-29-32;8,0;44,0;1000;2,0;3,0;1,0;0,0;row;1,0;True;True;True;3,89800000191;True;0,903000116348
BKF1975w;experiment;2017-03-13-15-29-32;8,0;45,0;1000;3,0;1,0;2,0;0,0;column;0,0;True;False;True;0,901000022888;True;0,702000141144
BKF1975w;experiment;2017-03-13-15-29-32;8,0;46,0;1000;3,0;2,0;0,0;1,0;column;0,0;False;False;False;1,26699995995;True;0,930000066757
BKF1975w;experiment;2017-03-13-15-29-32;8,0;47,0;1000;2,0;0,0;3,0;1,0;row;1,0;False;True;False;3,53299999237;True;1,30200004578
BKF1975w;experiment;2017-03-13-15-29-32;8,0;48,0;1000;1,0;0,0;2,0;3,0;column;1,0;True;True;True;2,89999985695;True;0,862999916077
BKF1975w;experiment;2017-03-13-15-29-32;9,0;1,0;100;1,0;2,0;0,0;3,0;column;1,0;False;True;True;5,9319999218;False;1,37199997902
BKF1975w;experiment;2017-03-13-15-29-32;9,0;2,0;100;2,0;1,0;3,0;0,0;row;0,0;False;True;False;4,06699991226;True;1,4279999733
BKF1975w;experiment;2017-03-13-15-29-32;9,0;3,0;100;3,0;0,0;2,0;1,0;row;0,0;False;True;False;3,79999995232;True;1,50100016594
BKF1975w;experiment;2017-03-13-15-29-32;9,0;4,0;100;3,0;1,0;2,0;0,0;column;1,0;True;False;True;3,36699986458;True;1,39899992943
BKF1975w;experiment;2017-03-13-15-29-32;9,0;5,0;100;0,0;1,0;3,0;2,0;column;1,0;True;True;True;6,49900007248;True;0,598999977112
BKF1975w;experiment;2017-03-13-15-29-32;9,0;6,0;100;3,0;1,0;0,0;2,0;column;1,0;False;False;False;2,56699991226;True;1,4240000248
BKF1975w;experiment;2017-03-13-15-29-32;9,0;7,0;100;2,0;0,0;1,0;3,0;column;0,0;True;True;True;3,49900007248;True;1,16599988937
BKF1975w;experiment;2017-03-13-15-29-32;9,0;8,0;100;2,0;0,0;3,0;1,0;row;1,0;True;False;False;10,0339999199;False;1,49900007248
BKF1975w;experiment;2017-03-13-15-29-32;9,0;9,0;100;2,0;0,0;3,0;1,0;column;0,0;True;True;True;1,39999985695;True;1,3259999752
BKF1975w;experiment;2017-03-13-15-29-32;9,0;10,0;100;3,0;1,0;0,0;2,0;column;0,0;False;False;False;1,13300013542;True;1,00100016594
BKF1975w;experiment;2017-03-13-15-29-32;9,0;11,0;100;1,0;3,0;0,0;2,0;column;1,0;False;False;False;3,03500008583;True;1,10000014305
BKF1975w;experiment;2017-03-13-15-29-32;9,0;12,0;100;3,0;2,0;1,0;0,0;row;0,0;False;True;False;2,89999985695;True;0,858000040054
BKF1975w;experiment;2017-03-13-15-29-32;9,0;13,0;100;0,0;2,0;3,0;1,0;row;1,0;True;True;False;3,86699986458;False;1,29099988937
BKF1975w;experiment;2017-03-13-15-29-32;9,0;14,0;100;3,0;0,0;2,0;1,0;row;0,0;True;True;True;4,79799985886;True;1,33399987221
BKF1975w;experiment;2017-03-13-15-29-32;9,0;15,0;100;0,0;2,0;1,0;3,0;column;1,0;False;True;False;4,66599988937;True;1,10500001907
BKF1975w;experiment;2017-03-13-15-29-32;9,0;16,0;100;3,0;2,0;0,0;1,0;row;0,0;False;False;False;4,40100002289;True;0,700000047684
BKF1975w;experiment;2017-03-13-15-29-32;9,0;17,0;100;2,0;0,0;1,0;3,0;row;1,0;True;False;False;4,76600003242;False;1,29699993134
BKF1975w;experiment;2017-03-13-15-29-32;9,0;18,0;100;0,0;2,0;1,0;3,0;row;1,0;False;True;False;2,99900007248;True;1,39299988747
BKF1975w;experiment;2017-03-13-15-29-32;9,0;19,0;100;1,0;2,0;3,0;0,0;row;0,0;True;True;True;2,5;True;1,17199993134
BKF1975w;experiment;2017-03-13-15-29-32;9,0;20,0;100;2,0;1,0;0,0;3,0;column;0,0;True;False;True;2,46600008011;True;1,19099998474
BKF1975w;experiment;2017-03-13-15-29-32;9,0;21,0;100;2,0;1,0;0,0;3,0;column;1,0;True;False;False;2,53299999237;False;1,03400015831
BKF1975w;experiment;2017-03-13-15-29-32;9,0;22,0;100;2,0;0,0;1,0;3,0;row;0,0;True;False;True;3,86800003052;True;0,766999959946
BKF1975w;experiment;2017-03-13-15-29-32;9,0;23,0;100;2,0;0,0;1,0;3,0;row;0,0;False;True;False;3,53299999237;True;0,966000080109
BKF1975w;experiment;2017-03-13-15-29-32;9,0;24,0;100;0,0;3,0;1,0;2,0;column;0,0;False;False;True;1,40000009537;False;0,753999948502
BKF1975w;experiment;2017-03-13-15-29-32;9,0;25,0;100;2,0;0,0;3,0;1,0;row;1,0;False;False;False;3,23399996758;True;0,736999988556
BKF1975w;experiment;2017-03-13-15-29-32;9,0;26,0;100;0,0;3,0;1,0;2,0;row;0,0;True;False;True;2,69900012016;True;1,16700005531
BKF1975w;experiment;2017-03-13-15-29-32;9,0;27,0;100;0,0;3,0;2,0;1,0;column;0,0;True;True;True;2,39899992943;True;1,22100019455
BKF1975w;experiment;2017-03-13-15-29-32;9,0;28,0;100;0,0;3,0;1,0;2,0;column;1,0;True;False;True;3,33299994469;True;0,770000219345
BKF1975w;experiment;2017-03-13-15-29-32;9,0;29,0;100;0,0;3,0;2,0;1,0;row;1,0;True;False;True;5,23399996758;True;0,725999832153
BKF1975w;experiment;2017-03-13-15-29-32;9,0;30,0;100;3,0;0,0;2,0;1,0;row;1,0;False;True;False;3,2009999752;True;1,20499992371
BKF1975w;experiment;2017-03-13-15-29-32;9,0;31,0;100;3,0;2,0;1,0;0,0;column;1,0;False;True;False;3,59999990463;True;0,534999847412
BKF1975w;experiment;2017-03-13-15-29-32;9,0;32,0;100;1,0;3,0;2,0;0,0;row;1,0;False;True;False;3,73200011253;True;1,46600008011
BKF1975w;experiment;2017-03-13-15-29-32;9,0;33,0;100;0,0;1,0;2,0;3,0;row;1,0;True;False;True;3,93300008774;True;1,16700005531
BKF1975w;experiment;2017-03-13-15-29-32;9,0;34,0;100;0,0;3,0;2,0;1,0;row;1,0;False;False;False;3,43200016022;True;1,39800000191
BKF1975w;experiment;2017-03-13-15-29-32;9,0;35,0;100;0,0;1,0;2,0;3,0;column;0,0;False;False;False;2,46600008011;True;0,669999837875
BKF1975w;experiment;2017-03-13-15-29-32;9,0;36,0;100;3,0;0,0;1,0;2,0;row;1,0;False;True;False;2,99899983406;True;1,12299990654
BKF1975w;experiment;2017-03-13-15-29-32;9,0;37,0;100;0,0;1,0;3,0;2,0;row;1,0;True;False;True;4,132999897;True;1,40000009537
BKF1975w;experiment;2017-03-13-15-29-32;9,0;38,0;100;0,0;2,0;1,0;3,0;column;0,0;False;False;False;1,16699981689;True;0,733000040054
BKF1975w;experiment;2017-03-13-15-29-32;9,0;39,0;100;3,0;0,0;1,0;2,0;row;1,0;True;False;True;4,53299999237;True;0,927999973297
BKF1975w;experiment;2017-03-13-15-29-32;9,0;40,0;100;2,0;3,0;0,0;1,0;row;0,0;True;True;False;2,76499986649;False;0,833999872208
BKF1975w;experiment;2017-03-13-15-29-32;9,0;41,0;100;2,0;0,0;1,0;3,0;column;0,0;False;False;False;3,10000014305;True;1,07000017166
BKF1975w;experiment;2017-03-13-15-29-32;9,0;42,0;100;1,0;2,0;3,0;0,0;column;0,0;True;False;True;1,23200011253;True;0,799000024796
BKF1975w;experiment;2017-03-13-15-29-32;9,0;43,0;100;0,0;1,0;2,0;3,0;column;1,0;True;True;True;4,63100004196;True;0,929000139236
BKF1975w;experiment;2017-03-13-15-29-32;9,0;44,0;100;2,0;1,0;0,0;3,0;row;1,0;True;True;True;3,7650001049;True;0,661999940872
BKF1975w;experiment;2017-03-13-15-29-32;9,0;45,0;100;0,0;3,0;1,0;2,0;row;1,0;True;True;True;3,79999995232;True;0,759000062943
BKF1975w;experiment;2017-03-13-15-29-32;9,0;46,0;100;0,0;2,0;1,0;3,0;column;0,0;True;False;True;1,33299994469;True;0,665999889374
BKF1975w;experiment;2017-03-13-15-29-32;9,0;47,0;100;1,0;2,0;3,0;0,0;row;0,0;False;True;False;6,03399991989;True;0,763000011444
BKF1975w;experiment;2017-03-13-15-29-32;9,0;48,0;100;1,0;0,0;2,0;3,0;column;1,0;False;False;False;2,09999990463;True;0,756999969482
BKF1975w;experiment;2017-03-13-15-29-32;10,0;1,0;-100;2,0;1,0;0,0;3,0;row;1,0;False;False;False;5,61800003052;True;1,29699993134
BKF1975w;experiment;2017-03-13-15-29-32;10,0;2,0;-100;1,0;0,0;3,0;2,0;row;0,0;True;True;True;2,58100008965;True;0,662000179291
BKF1975w;experiment;2017-03-13-15-29-32;10,0;3,0;-100;0,0;2,0;1,0;3,0;row;0,0;True;False;True;5,28299999237;True;1,20300006866
BKF1975w;experiment;2017-03-13-15-29-32;10,0;4,0;-100;0,0;1,0;2,0;3,0;column;1,0;True;True;True;4,91400003433;True;1,132999897
BKF1975w;experiment;2017-03-13-15-29-32;10,0;5,0;-100;2,0;0,0;1,0;3,0;column;0,0;True;False;True;1,28400015831;True;1,40100002289
BKF1975w;experiment;2017-03-13-15-29-32;10,0;6,0;-100;3,0;1,0;2,0;0,0;row;1,0;False;True;False;1,37999987602;True;0,588999986649
BKF1975w;experiment;2017-03-13-15-29-32;10,0;7,0;-100;1,0;2,0;3,0;0,0;row;0,0;False;False;True;1,9509999752;False;0,569999933243
BKF1975w;experiment;2017-03-13-15-29-32;10,0;8,0;-100;2,0;0,0;3,0;1,0;row;1,0;False;True;True;1,28299999237;False;1,50099992752
BKF1975w;experiment;2017-03-13-15-29-32;10,0;9,0;-100;3,0;0,0;2,0;1,0;row;0,0;False;False;False;1,41499996185;True;1,09800004959
BKF1975w;experiment;2017-03-13-15-29-32;10,0;10,0;-100;1,0;2,0;0,0;3,0;row;1,0;True;True;True;1,85000014305;True;1,02999997139
BKF1975w;experiment;2017-03-13-15-29-32;10,0;11,0;-100;1,0;2,0;3,0;0,0;row;1,0;False;True;False;1,85100007057;True;1,30100011826
BKF1975w;experiment;2017-03-13-15-29-32;10,0;12,0;-100;2,0;1,0;3,0;0,0;column;0,0;True;True;True;1,18400001526;True;0,704999923706
BKF1975w;experiment;2017-03-13-15-29-32;10,0;13,0;-100;0,0;3,0;1,0;2,0;column;1,0;True;True;True;0,848999977112;True;1,03600001335
BKF1975w;experiment;2017-03-13-15-29-32;10,0;14,0;-100;1,0;3,0;0,0;2,0;row;1,0;True;True;False;1,78299999237;False;1,00499987602
BKF1975w;experiment;2017-03-13-15-29-32;10,0;15,0;-100;2,0;3,0;0,0;1,0;row;0,0;True;False;False;1,81699991226;False;0,563999891281
BKF1975w;experiment;2017-03-13-15-29-32;10,0;16,0;-100;2,0;3,0;0,0;1,0;row;0,0;False;True;True;0,81600022316;False;0,600999832153
BKF1975w;experiment;2017-03-13-15-29-32;10,0;17,0;-100;1,0;0,0;2,0;3,0;row;1,0;True;True;True;2,11699986458;True;0,620000123978
BKF1975w;experiment;2017-03-13-15-29-32;10,0;18,0;-100;1,0;3,0;2,0;0,0;row;0,0;True;True;True;2,61400008202;True;0,506999969482
BKF1975w;experiment;2017-03-13-15-29-32;10,0;19,0;-100;3,0;2,0;1,0;0,0;column;1,0;True;False;True;1,21599984169;True;1,03200006485
BKF1975w;experiment;2017-03-13-15-29-32;10,0;20,0;-100;0,0;3,0;1,0;2,0;row;1,0;False;True;False;1,68099999428;True;1,03699994087
BKF1975w;experiment;2017-03-13-15-29-32;10,0;21,0;-100;3,0;1,0;2,0;0,0;row;0,0;True;False;True;2,5150001049;True;0,861999988556
BKF1975w;experiment;2017-03-13-15-29-32;10,0;22,0;-100;3,0;2,0;0,0;1,0;row;0,0;True;True;True;2,11699986458;True;1,37199997902
BKF1975w;experiment;2017-03-13-15-29-32;10,0;23,0;-100;2,0;1,0;0,0;3,0;row;0,0;True;True;True;1,38499999046;True;0,863000154495
BKF1975w;experiment;2017-03-13-15-29-32;10,0;24,0;-100;1,0;2,0;3,0;0,0;column;0,0;True;True;False;1,65000009537;False;0,630000114441
BKF1975w;experiment;2017-03-13-15-29-32;10,0;25,0;-100;0,0;2,0;3,0;1,0;column;1,0;False;False;False;2,78299999237;True;1,20300006866
BKF1975w;experiment;2017-03-13-15-29-32;10,0;26,0;-100;0,0;1,0;2,0;3,0;column;0,0;False;True;False;2,28299999237;True;0,730000019073
BKF1975w;experiment;2017-03-13-15-29-32;10,0;27,0;-100;0,0;2,0;1,0;3,0;column;0,0;True;True;False;2,21700000763;False;1,47099995613
BKF1975w;experiment;2017-03-13-15-29-32;10,0;28,0;-100;3,0;1,0;0,0;2,0;column;1,0;False;False;False;1,25;True;0,702999830246
BKF1975w;experiment;2017-03-13-15-29-32;10,0;29,0;-100;2,0;0,0;3,0;1,0;column;0,0;True;False;False;1,41599988937;False;1,49700021744
BKF1975w;experiment;2017-03-13-15-29-32;10,0;30,0;-100;1,0;0,0;3,0;2,0;row;0,0;False;True;False;2,78400015831;True;1,03500008583
BKF1975w;experiment;2017-03-13-15-29-32;10,0;31,0;-100;0,0;3,0;1,0;2,0;column;1,0;False;False;False;2,11599993706;True;0,669000148773
BKF1975w;experiment;2017-03-13-15-29-32;10,0;32,0;-100;3,0;2,0;1,0;0,0;row;1,0;True;True;True;2,44899988174;True;0,631000041962
BKF1975w;experiment;2017-03-13-15-29-32;10,0;33,0;-100;3,0;1,0;2,0;0,0;row;0,0;False;True;False;1,84999990463;True;0,93799996376
BKF1975w;experiment;2017-03-13-15-29-32;10,0;34,0;-100;2,0;0,0;1,0;3,0;row;0,0;True;False;True;2,44899988174;True;1,02399992943
BKF1975w;experiment;2017-03-13-15-29-32;10,0;35,0;-100;1,0;0,0;2,0;3,0;column;0,0;False;False;False;1,41700005531;True;1,36199998856
BKF1975w;experiment;2017-03-13-15-29-32;10,0;36,0;-100;3,0;0,0;1,0;2,0;row;1,0;False;False;False;1,61599993706;True;0,569999933243
BKF1975w;experiment;2017-03-13-15-29-32;10,0;37,0;-100;2,0;0,0;1,0;3,0;column;0,0;False;False;False;1,68400001526;True;1,16400003433
BKF1975w;experiment;2017-03-13-15-29-32;10,0;38,0;-100;1,0;3,0;0,0;2,0;row;0,0;True;False;True;2,01599979401;True;1,16799998283
BKF1975w;experiment;2017-03-13-15-29-32;10,0;39,0;-100;0,0;1,0;3,0;2,0;column;1,0;False;False;False;2,98300004005;True;1,40299987793
BKF1975w;experiment;2017-03-13-15-29-32;10,0;40,0;-100;3,0;2,0;0,0;1,0;column;0,0;True;False;False;1,21700000763;False;1,4279999733
BKF1975w;experiment;2017-03-13-15-29-32;10,0;41,0;-100;0,0;3,0;2,0;1,0;row;0,0;True;False;False;2,11600017548;False;1,0609998703
BKF1975w;experiment;2017-03-13-15-29-32;10,0;42,0;-100;2,0;3,0;1,0;0,0;row;1,0;True;False;True;1,88399982452;True;0,867000102997
BKF1975w;experiment;2017-03-13-15-29-32;10,0;43,0;-100;1,0;2,0;0,0;3,0;column;0,0;True;False;True;1,95000004768;True;1,09700012207
BKF1975w;experiment;2017-03-13-15-29-32;10,0;44,0;-100;3,0;1,0;0,0;2,0;row;0,0;False;True;True;2,45000004768;False;1,09500002861
BKF1975w;experiment;2017-03-13-15-29-32;10,0;45,0;-100;1,0;2,0;0,0;3,0;row;0,0;False;True;True;1,31699991226;False;0,799000024796
BKF1975w;experiment;2017-03-13-15-29-32;10,0;46,0;-100;3,0;1,0;2,0;0,0;column;1,0;True;True;True;1,18299984932;True;0,835999965668
BKF1975w;experiment;2017-03-13-15-29-32;10,0;47,0;-100;0,0;1,0;3,0;2,0;row;0,0;True;True;True;1,25;True;0,633999824524
BKF1975w;experiment;2017-03-13-15-29-32;10,0;48,0;-100;3,0;2,0;1,0;0,0;column;1,0;False;False;False;1,44999980927;True;1,31999993324
BKF1975w;experiment;2017-03-13-15-29-32;11,0;1,0;100;1,0;2,0;0,0;3,0;column;1,0;True;False;True;1,0;True;0,976999998093
BKF1975w;experiment;2017-03-13-15-29-32;11,0;2,0;100;3,0;2,0;0,0;1,0;row;0,0;True;True;False;1,56699991226;False;1,06100010872
BKF1975w;experiment;2017-03-13-15-29-32;11,0;3,0;100;1,0;3,0;0,0;2,0;row;0,0;False;False;False;1,63399982452;True;1,33800005913
BKF1975w;experiment;2017-03-13-15-29-32;11,0;4,0;100;3,0;2,0;0,0;1,0;column;1,0;True;False;True;0,833999872208;True;0,93700003624
BKF1975w;experiment;2017-03-13-15-29-32;11,0;5,0;100;1,0;3,0;2,0;0,0;row;0,0;False;True;True;2,59899997711;False;1,1210000515
BKF1975w;experiment;2017-03-13-15-29-32;11,0;6,0;100;1,0;0,0;3,0;2,0;column;0,0;True;True;True;1,33299994469;True;1,0680000782
BKF1975w;experiment;2017-03-13-15-29-32;11,0;7,0;100;0,0;2,0;3,0;1,0;row;1,0;False;False;False;1,39999985695;True;0,602999925613
BKF1975w;experiment;2017-03-13-15-29-32;11,0;8,0;100;3,0;2,0;0,0;1,0;column;0,0;False;False;False;1,90000009537;True;1,25999999046
BKF1975w;experiment;2017-03-13-15-29-32;11,0;9,0;100;2,0;3,0;1,0;0,0;row;0,0;False;True;False;1,13300013542;True;1,2990000248
BKF1975w;experiment;2017-03-13-15-29-32;11,0;10,0;100;3,0;0,0;2,0;1,0;row;1,0;True;False;True;1,83300018311;True;0,536000013351
BKF1975w;experiment;2017-03-13-15-29-32;11,0;11,0;100;0,0;2,0;3,0;1,0;column;1,0;False;True;False;1,19999980927;True;1,30500006676
BKF1975w;experiment;2017-03-13-15-29-32;11,0;12,0;100;3,0;1,0;2,0;0,0;column;1,0;False;False;False;1,29999995232;True;1,06399989128
BKF1975w;experiment;2017-03-13-15-29-32;11,0;13,0;100;0,0;1,0;3,0;2,0;row;0,0;True;False;True;2,10000014305;True;0,594000101089
BKF1975w;experiment;2017-03-13-15-29-32;11,0;14,0;100;0,0;1,0;2,0;3,0;column;1,0;False;False;False;2,26699995995;True;1,23599982262
BKF1975w;experiment;2017-03-13-15-29-32;11,0;15,0;100;2,0;3,0;0,0;1,0;row;0,0;False;False;False;1,93400001526;True;0,93700003624
BKF1975w;experiment;2017-03-13-15-29-32;11,0;16,0;100;3,0;2,0;1,0;0,0;row;1,0;False;False;False;2,20000004768;True;1,47000002861
BKF1975w;experiment;2017-03-13-15-29-32;11,0;17,0;100;1,0;3,0;2,0;0,0;column;1,0;True;False;False;1,632999897;False;1,20000004768
BKF1975w;experiment;2017-03-13-15-29-32;11,0;18,0;100;0,0;1,0;3,0;2,0;row;1,0;False;False;False;2,03200006485;True;0,601999998093
BKF1975w;experiment;2017-03-13-15-29-32;11,0;19,0;100;1,0;2,0;0,0;3,0;column;0,0;False;True;False;3,83299994469;True;1,42499995232
BKF1975w;experiment;2017-03-13-15-29-32;11,0;20,0;100;0,0;1,0;2,0;3,0;row;0,0;False;False;False;2,29999995232;True;0,568000078201
BKF1975w;experiment;2017-03-13-15-29-32;11,0;21,0;100;3,0;2,0;1,0;0,0;row;0,0;True;False;True;2,59999990463;True;0,827999830246
BKF1975w;experiment;2017-03-13-15-29-32;11,0;22,0;100;1,0;0,0;2,0;3,0;row;0,0;True;True;True;2,96599984169;True;1,37000012398
BKF1975w;experiment;2017-03-13-15-29-32;11,0;23,0;100;2,0;3,0;1,0;0,0;column;0,0;True;True;False;1,76600003242;False;1,03399991989
BKF1975w;experiment;2017-03-13-15-29-32;11,0;24,0;100;2,0;3,0;1,0;0,0;row;1,0;False;True;False;2,53299999237;True;0,864000082016
BKF1975w;experiment;2017-03-13-15-29-32;11,0;25,0;100;2,0;1,0;0,0;3,0;column;1,0;False;False;False;2,90099978447;True;0,934000015259
BKF1975w;experiment;2017-03-13-15-29-32;11,0;26,0;100;3,0;0,0;2,0;1,0;column;0,0;False;False;False;2,56700015068;True;0,756000041962
BKF1975w;experiment;2017-03-13-15-29-32;11,0;27,0;100;1,0;2,0;0,0;3,0;row;0,0;False;False;False;1,03299999237;True;1,22799992561
BKF1975w;experiment;2017-03-13-15-29-32;11,0;28,0;100;3,0;2,0;1,0;0,0;column;0,0;True;True;False;1,64299988747;False;0,769999980927
BKF1975w;experiment;2017-03-13-15-29-32;11,0;29,0;100;1,0;0,0;3,0;2,0;row;1,0;False;False;True;1,56700015068;False;1,03299999237
BKF1975w;experiment;2017-03-13-15-29-32;11,0;30,0;100;3,0;0,0;1,0;2,0;column;0,0;False;True;False;3,66700005531;True;1,2380001545
BKF1975w;experiment;2017-03-13-15-29-32;11,0;31,0;100;0,0;3,0;1,0;2,0;column;1,0;False;True;False;2,00099992752;True;1,23399996758
BKF1975w;experiment;2017-03-13-15-29-32;11,0;32,0;100;2,0;0,0;1,0;3,0;column;1,0;True;False;True;2,46700000763;True;0,768000125885
BKF1975w;experiment;2017-03-13-15-29-32;11,0;33,0;100;3,0;1,0;2,0;0,0;row;1,0;True;True;False;2,70000004768;False;0,799999952316
BKF1975w;experiment;2017-03-13-15-29-32;11,0;34,0;100;2,0;3,0;0,0;1,0;column;0,0;False;True;False;1,56599998474;True;1,43600010872
BKF1975w;experiment;2017-03-13-15-29-32;11,0;35,0;100;1,0;3,0;2,0;0,0;row;1,0;True;False;False;1,96600008011;False;1,00200009346
BKF1975w;experiment;2017-03-13-15-29-32;11,0;36,0;100;2,0;3,0;0,0;1,0;row;1,0;True;True;True;3,0;True;1,26799988747
BKF1975w;experiment;2017-03-13-15-29-32;11,0;37,0;100;2,0;0,0;3,0;1,0;column;1,0;False;True;False;2,2990000248;True;0,700999975204
BKF1975w;experiment;2017-03-13-15-29-32;11,0;38,0;100;1,0;2,0;0,0;3,0;row;1,0;True;True;True;2,50100016594;True;0,767999887466
BKF1975w;experiment;2017-03-13-15-29-32;11,0;39,0;100;0,0;2,0;1,0;3,0;column;1,0;True;False;True;1,79999995232;True;1,23099994659
BKF1975w;experiment;2017-03-13-15-29-32;11,0;40,0;100;0,0;3,0;2,0;1,0;column;1,0;True;True;True;2,83299994469;True;0,861000061035
BKF1975w;experiment;2017-03-13-15-29-32;11,0;41,0;100;3,0;2,0;0,0;1,0;row;1,0;False;False;True;1,60100007057;False;0,703000068665
BKF1975w;experiment;2017-03-13-15-29-32;11,0;42,0;100;2,0;3,0;1,0;0,0;column;1,0;True;False;True;1,39800000191;True;1,03600001335
BKF1975w;experiment;2017-03-13-15-29-32;11,0;43,0;100;2,0;0,0;3,0;1,0;row;0,0;False;True;False;2,20000004768;True;0,674000024796
BKF1975w;experiment;2017-03-13-15-29-32;11,0;44,0;100;2,0;3,0;1,0;0,0;row;0,0;True;True;True;1,96700000763;True;1,23699998856
BKF1975w;experiment;2017-03-13-15-29-32;11,0;45,0;100;2,0;0,0;1,0;3,0;row;1,0;False;False;False;1,73399996758;True;0,968999862671
BKF1975w;experiment;2017-03-13-15-29-32;11,0;46,0;100;3,0;1,0;2,0;0,0;column;0,0;True;True;False;1,66599988937;False;1,49300003052
BKF1975w;experiment;2017-03-13-15-29-32;11,0;47,0;100;0,0;2,0;3,0;1,0;column;1,0;True;False;True;1,09999990463;True;1,10299992561
BKF1975w;experiment;2017-03-13-15-29-32;11,0;48,0;100;2,0;3,0;1,0;0,0;column;1,0;False;False;False;1,0;True;0,738999843597
BKF1975w;experiment;2017-03-13-15-29-32;12,0;1,0;1000;3,0;1,0;0,0;2,0;column;1,0;False;True;False;1,39899992943;True;1,29600000381
BKF1975w;experiment;2017-03-13-15-29-32;12,0;2,0;1000;0,0;3,0;2,0;1,0;column;0,0;True;True;False;2,2009999752;False;0,832000017166
BKF1975w;experiment;2017-03-13-15-29-32;12,0;3,0;1000;3,0;2,0;1,0;0,0;row;0,0;True;True;True;1,16700005531;True;0,600999832153
BKF1975w;experiment;2017-03-13-15-29-32;12,0;4,0;1000;3,0;1,0;0,0;2,0;column;0,0;False;False;True;2,16700005531;False;1,26999998093
BKF1975w;experiment;2017-03-13-15-29-32;12,0;5,0;1000;3,0;2,0;0,0;1,0;column;1,0;True;False;False;2,03399991989;False;1,02699995041
BKF1975w;experiment;2017-03-13-15-29-32;12,0;6,0;1000;2,0;0,0;1,0;3,0;row;0,0;True;True;True;1,79999995232;True;1,29200005531
BKF1975w;experiment;2017-03-13-15-29-32;12,0;7,0;1000;0,0;1,0;2,0;3,0;column;1,0;False;True;False;1,36699986458;True;0,767999887466
BKF1975w;experiment;2017-03-13-15-29-32;12,0;8,0;1000;3,0;2,0;1,0;0,0;column;0,0;False;True;False;1,13199996948;True;1,10300016403
BKF1975w;experiment;2017-03-13-15-29-32;12,0;9,0;1000;0,0;1,0;3,0;2,0;row;0,0;False;False;False;1,4319999218;True;1,28699994087
BKF1975w;experiment;2017-03-13-15-29-32;12,0;10,0;1000;2,0;1,0;3,0;0,0;column;1,0;True;True;True;1,73300004005;True;0,519999980927
BKF1975w;experiment;2017-03-13-15-29-32;12,0;11,0;1000;1,0;0,0;2,0;3,0;column;0,0;True;False;False;1,39999985695;False;0,928999900818
BKF1975w;experiment;2017-03-13-15-29-32;12,0;12,0;1000;1,0;2,0;3,0;0,0;row;1,0;False;False;True;3,2349998951;False;1,40499997139
BKF1975w;experiment;2017-03-13-15-29-32;12,0;13,0;1000;0,0;1,0;3,0;2,0;column;1,0;False;False;False;0,934000015259;True;0,736000061035
BKF1975w;experiment;2017-03-13-15-29-32;12,0;14,0;1000;1,0;2,0;0,0;3,0;row;1,0;True;False;True;2,63199996948;True;0,955999851227
BKF1975w;experiment;2017-03-13-15-29-32;12,0;15,0;1000;0,0;2,0;1,0;3,0;column;0,0;False;False;False;2,03299999237;True;0,693000078201
BKF1975w;experiment;2017-03-13-15-29-32;12,0;16,0;1000;1,0;3,0;0,0;2,0;column;0,0;False;True;False;2,93400001526;True;1,03100013733
BKF1975w;experiment;2017-03-13-15-29-32;12,0;17,0;1000;3,0;0,0;2,0;1,0;row;1,0;False;False;False;1,50100016594;True;1,46199989319
BKF1975w;experiment;2017-03-13-15-29-32;12,0;18,0;1000;1,0;3,0;0,0;2,0;row;1,0;True;False;True;3,2990000248;True;1,17100000381
BKF1975w;experiment;2017-03-13-15-29-32;12,0;19,0;1000;0,0;1,0;2,0;3,0;row;0,0;False;True;False;1,03299999237;True;0,532999992371
BKF1975w;experiment;2017-03-13-15-29-32;12,0;20,0;1000;1,0;0,0;3,0;2,0;row;1,0;False;True;False;1,96599984169;True;1,17000007629
BKF1975w;experiment;2017-03-13-15-29-32;12,0;21,0;1000;0,0;2,0;1,0;3,0;row;1,0;False;False;False;1,867000103;True;0,53200006485
BKF1975w;experiment;2017-03-13-15-29-32;12,0;22,0;1000;0,0;2,0;1,0;3,0;column;1,0;False;True;False;1,89999985695;True;0,701999902725
BKF1975w;experiment;2017-03-13-15-29-32;12,0;23,0;1000;2,0;1,0;3,0;0,0;row;0,0;False;True;False;1,83299994469;True;0,533999919891
BKF1975w;experiment;2017-03-13-15-29-32;12,0;24,0;1000;3,0;1,0;2,0;0,0;column;0,0;False;True;True;3,33400011063;False;0,600000143051
BKF1975w;experiment;2017-03-13-15-29-32;12,0;25,0;1000;0,0;3,0;1,0;2,0;row;1,0;False;True;False;2,59700012207;True;1,33500003815
BKF1975w;experiment;2017-03-13-15-29-32;12,0;26,0;1000;0,0;2,0;3,0;1,0;column;0,0;False;False;False;2,40100002289;True;0,765000104904
BKF1975w;experiment;2017-03-13-15-29-32;12,0;27,0;1000;3,0;1,0;0,0;2,0;row;1,0;True;False;True;2,06500005722;True;1,33400011063
BKF1975w;experiment;2017-03-13-15-29-32;12,0;28,0;1000;0,0;3,0;2,0;1,0;row;0,0;False;True;False;1,0;True;0,899000167847
BKF1975w;experiment;2017-03-13-15-29-32;12,0;29,0;1000;3,0;0,0;1,0;2,0;column;1,0;True;False;True;2,90100002289;True;1,132999897
BKF1975w;experiment;2017-03-13-15-29-32;12,0;30,0;1000;0,0;1,0;2,0;3,0;row;1,0;True;True;False;1,7990000248;False;1,33699989319
BKF1975w;experiment;2017-03-13-15-29-32;12,0;31,0;1000;3,0;2,0;0,0;1,0;row;0,0;True;False;True;1,46700000763;True;1,13100004196
BKF1975w;experiment;2017-03-13-15-29-32;12,0;32,0;1000;2,0;0,0;3,0;1,0;column;0,0;True;True;True;1,632999897;True;0,868000030518
BKF1975w;experiment;2017-03-13-15-29-32;12,0;33,0;1000;0,0;3,0;2,0;1,0;column;1,0;True;True;True;1,73300004005;True;1,26600003242
BKF1975w;experiment;2017-03-13-15-29-32;12,0;34,0;1000;1,0;2,0;3,0;0,0;row;0,0;True;False;False;1,367000103;False;0,960999965668
BKF1975w;experiment;2017-03-13-15-29-32;12,0;35,0;1000;3,0;0,0;2,0;1,0;row;0,0;True;False;True;1,40000009537;True;0,927000045776
BKF1975w;experiment;2017-03-13-15-29-32;12,0;36,0;1000;1,0;3,0;2,0;0,0;row;0,0;True;False;True;2,33299994469;True;1,33599996567
BKF1975w;experiment;2017-03-13-15-29-32;12,0;37,0;1000;1,0;3,0;0,0;2,0;row;0,0;True;True;True;1,26700019836;True;1,09200000763
BKF1975w;experiment;2017-03-13-15-29-32;12,0;38,0;1000;1,0;0,0;2,0;3,0;column;0,0;False;True;False;2,96700000763;True;1,16499996185
BKF1975w;experiment;2017-03-13-15-29-32;12,0;39,0;1000;1,0;3,0;0,0;2,0;row;0,0;False;False;False;1,132999897;True;0,697000026703
BKF1975w;experiment;2017-03-13-15-29-32;12,0;40,0;1000;3,0;2,0;1,0;0,0;column;1,0;True;True;False;1,56699991226;False;0,863000154495
BKF1975w;experiment;2017-03-13-15-29-32;12,0;41,0;1000;0,0;3,0;1,0;2,0;column;1,0;False;False;False;1,33400011063;True;0,836999893188
BKF1975w;experiment;2017-03-13-15-29-32;12,0;42,0;1000;2,0;1,0;0,0;3,0;column;0,0;False;False;False;2,367000103;True;1,19499993324
BKF1975w;experiment;2017-03-13-15-29-32;12,0;43,0;1000;3,0;1,0;0,0;2,0;column;0,0;True;False;True;2,19800019264;True;1,33599996567
BKF1975w;experiment;2017-03-13-15-29-32;12,0;44,0;1000;3,0;1,0;0,0;2,0;row;1,0;False;False;False;5,76699995995;True;0,659999847412
BKF1975w;experiment;2017-03-13-15-29-32;12,0;45,0;1000;0,0;1,0;2,0;3,0;row;0,0;True;True;True;3,0;True;0,799000024796
BKF1975w;experiment;2017-03-13-15-29-32;12,0;46,0;1000;3,0;2,0;0,0;1,0;row;1,0;False;True;False;2,70000004768;True;1,03200006485
BKF1975w;experiment;2017-03-13-15-29-32;12,0;47,0;1000;0,0;2,0;3,0;1,0;row;1,0;True;False;False;1,46600008011;False;0,765000104904
BKF1975w;experiment;2017-03-13-15-29-32;12,0;48,0;1000;1,0;0,0;3,0;2,0;column;0,0;True;True;True;1,03299999237;True;1,39999985695
