Observer;Condition;SessionID;Block;Trial;COA;Color0;Color1;Color2;Color3;Target;Which;Match;FlipComplimentary;Response;RT;Correct;OnsetDelay
CEN2000w;experiment;2017-01-27-09-09-23;1,0;1,0;-100;0,0;3,0;1,0;2,0;row;1,0;False;False;True;2,24900007248;False;0,704999923706
CEN2000w;experiment;2017-01-27-09-09-23;1,0;2,0;-100;1,0;0,0;2,0;3,0;column;0,0;True;False;False;1,54699993134;False;1,30099987984
CEN2000w;experiment;2017-01-27-09-09-23;1,0;3,0;-100;2,0;1,0;0,0;3,0;row;1,0;False;True;True;2,0490000248;False;1,33599996567
CEN2000w;experiment;2017-01-27-09-09-23;1,0;4,0;-100;2,0;3,0;1,0;0,0;column;1,0;False;True;False;2,08099985123;True;0,601999998093
CEN2000w;experiment;2017-01-27-09-09-23;1,0;5,0;-100;1,0;2,0;0,0;3,0;row;0,0;False;False;False;2,11699986458;True;1,29699993134
CEN2000w;experiment;2017-01-27-09-09-23;1,0;6,0;-100;2,0;3,0;1,0;0,0;column;0,0;False;True;False;2,41700005531;True;0,96799993515
CEN2000w;experiment;2017-01-27-09-09-23;1,0;7,0;-100;0,0;1,0;3,0;2,0;row;0,0;True;False;True;1,34899997711;True;1,52500009537
CEN2000w;experiment;2017-01-27-09-09-23;1,0;8,0;-100;3,0;1,0;2,0;0,0;row;0,0;True;True;True;1,58300018311;True;0,526999950409
CEN2000w;experiment;2017-01-27-09-09-23;1,0;9,0;-100;0,0;2,0;3,0;1,0;row;1,0;False;False;False;2,04999995232;True;1,39499998093
CEN2000w;experiment;2017-01-27-09-09-23;1,0;10,0;-100;2,0;1,0;3,0;0,0;column;1,0;True;False;True;1,51699995995;True;0,898000001907
CEN2000w;experiment;2017-01-27-09-09-23;1,0;11,0;-100;0,0;2,0;3,0;1,0;column;0,0;False;False;False;1,28200006485;True;0,963999986649
CEN2000w;experiment;2017-01-27-09-09-23;1,0;12,0;-100;3,0;0,0;2,0;1,0;row;0,0;False;False;False;1,54999995232;True;0,695999860764
CEN2000w;experiment;2017-01-27-09-09-23;1,0;13,0;-100;2,0;0,0;3,0;1,0;row;0,0;False;False;False;1,04999995232;True;1,16999983788
CEN2000w;experiment;2017-01-27-09-09-23;1,0;14,0;-100;3,0;2,0;1,0;0,0;column;0,0;True;True;True;1,84899997711;True;1,39800000191
CEN2000w;experiment;2017-01-27-09-09-23;1,0;15,0;-100;0,0;2,0;3,0;1,0;column;1,0;False;True;False;2,08299994469;True;0,796000003815
CEN2000w;experiment;2017-01-27-09-09-23;1,0;16,0;-100;2,0;1,0;0,0;3,0;row;1,0;True;True;True;1,5150001049;True;1,19799995422
CEN2000w;experiment;2017-01-27-09-09-23;1,0;17,0;-100;0,0;1,0;2,0;3,0;row;0,0;False;True;False;0,882000207901;True;0,999000072479
CEN2000w;experiment;2017-01-27-09-09-23;1,0;18,0;-100;2,0;1,0;3,0;0,0;row;0,0;True;True;True;1,01399993896;True;1,09100008011
CEN2000w;experiment;2017-01-27-09-09-23;1,0;19,0;-100;0,0;1,0;2,0;3,0;row;1,0;True;True;True;1,14999985695;True;0,704999923706
CEN2000w;experiment;2017-01-27-09-09-23;1,0;20,0;-100;0,0;3,0;1,0;2,0;column;0,0;True;True;True;1,51300001144;True;0,994000196457
CEN2000w;experiment;2017-01-27-09-09-23;1,0;21,0;-100;2,0;1,0;3,0;0,0;column;0,0;False;True;False;1,68299984932;True;1,27099990845
CEN2000w;experiment;2017-01-27-09-09-23;1,0;22,0;-100;0,0;3,0;1,0;2,0;column;0,0;False;False;True;1,11599993706;False;1,13700008392
CEN2000w;experiment;2017-01-27-09-09-23;1,0;23,0;-100;2,0;0,0;3,0;1,0;row;1,0;False;False;False;1,54999995232;True;1,19400000572
CEN2000w;experiment;2017-01-27-09-09-23;1,0;24,0;-100;0,0;2,0;3,0;1,0;column;0,0;True;True;True;1,117000103;True;1,00100016594
CEN2000w;experiment;2017-01-27-09-09-23;1,0;25,0;-100;2,0;1,0;3,0;0,0;column;0,0;True;False;True;0,884000062943;True;1,46700000763
CEN2000w;experiment;2017-01-27-09-09-23;1,0;26,0;-100;2,0;1,0;0,0;3,0;row;0,0;False;True;True;1,08399987221;False;1,02799987793
CEN2000w;experiment;2017-01-27-09-09-23;1,0;27,0;-100;2,0;3,0;0,0;1,0;column;0,0;False;False;False;0,884000062943;True;0,729999780655
CEN2000w;experiment;2017-01-27-09-09-23;1,0;28,0;-100;2,0;3,0;1,0;0,0;column;0,0;True;True;True;0,849999904633;True;0,565999984741
CEN2000w;experiment;2017-01-27-09-09-23;1,0;29,0;-100;0,0;2,0;1,0;3,0;row;0,0;True;True;True;1,01600003242;True;1,39499998093
CEN2000w;experiment;2017-01-27-09-09-23;1,0;30,0;-100;0,0;1,0;2,0;3,0;column;1,0;True;False;True;1,41700005531;True;0,59500002861
CEN2000w;experiment;2017-01-27-09-09-23;1,0;31,0;-100;2,0;1,0;3,0;0,0;row;0,0;False;True;False;0,883999824524;True;0,569000005722
CEN2000w;experiment;2017-01-27-09-09-23;1,0;32,0;-100;1,0;2,0;0,0;3,0;column;1,0;True;False;True;0,950000047684;True;1,46399998665
CEN2000w;experiment;2017-01-27-09-09-23;1,0;33,0;-100;3,0;1,0;0,0;2,0;column;1,0;True;False;True;1,08299994469;True;1,4359998703
CEN2000w;experiment;2017-01-27-09-09-23;1,0;34,0;-100;3,0;2,0;0,0;1,0;row;0,0;False;True;True;1,15100002289;False;1,45899987221
CEN2000w;experiment;2017-01-27-09-09-23;1,0;35,0;-100;1,0;3,0;2,0;0,0;row;1,0;False;False;False;0,983000040054;True;0,995000123978
CEN2000w;experiment;2017-01-27-09-09-23;1,0;36,0;-100;2,0;3,0;0,0;1,0;row;1,0;True;False;True;1,45000004768;True;1,26900005341
CEN2000w;experiment;2017-01-27-09-09-23;1,0;37,0;-100;0,0;2,0;1,0;3,0;column;0,0;True;False;True;1,0490000248;True;1,4279999733
CEN2000w;experiment;2017-01-27-09-09-23;1,0;38,0;-100;3,0;0,0;1,0;2,0;row;1,0;False;True;False;1,38300013542;True;1,46399998665
CEN2000w;experiment;2017-01-27-09-09-23;1,0;39,0;-100;1,0;2,0;3,0;0,0;row;1,0;False;True;False;1,28399991989;True;0,53200006485
CEN2000w;experiment;2017-01-27-09-09-23;1,0;40,0;-100;0,0;1,0;3,0;2,0;row;0,0;False;False;True;1,11699986458;False;0,830999851227
CEN2000w;experiment;2017-01-27-09-09-23;1,0;41,0;-100;1,0;3,0;2,0;0,0;row;0,0;True;True;True;1,6179997921;True;1,36199998856
CEN2000w;experiment;2017-01-27-09-09-23;1,0;42,0;-100;0,0;1,0;3,0;2,0;column;0,0;False;False;False;0,983999967575;True;1,12800002098
CEN2000w;experiment;2017-01-27-09-09-23;1,0;43,0;-100;3,0;2,0;0,0;1,0;row;0,0;True;True;True;1,25;True;1,10100007057
CEN2000w;experiment;2017-01-27-09-09-23;1,0;44,0;-100;1,0;3,0;0,0;2,0;column;0,0;True;True;True;0,881999969482;True;0,532999992371
CEN2000w;experiment;2017-01-27-09-09-23;1,0;45,0;-100;2,0;0,0;1,0;3,0;column;1,0;True;False;True;1,28299999237;True;0,697000026703
CEN2000w;experiment;2017-01-27-09-09-23;1,0;46,0;-100;1,0;0,0;2,0;3,0;column;1,0;True;False;True;1,61800003052;True;0,864000082016
CEN2000w;experiment;2017-01-27-09-09-23;1,0;47,0;-100;2,0;0,0;3,0;1,0;column;1,0;False;False;True;1,1819999218;False;0,794999837875
CEN2000w;experiment;2017-01-27-09-09-23;1,0;48,0;-100;2,0;0,0;3,0;1,0;column;0,0;False;False;True;1,05000019073;False;1,49699997902
CEN2000w;experiment;2017-01-27-09-09-23;2,0;1,0;100;3,0;1,0;0,0;2,0;row;0,0;False;True;False;1,06699991226;True;0,94000005722
CEN2000w;experiment;2017-01-27-09-09-23;2,0;2,0;100;2,0;1,0;3,0;0,0;column;1,0;True;True;True;0,933000087738;True;1,32699990273
CEN2000w;experiment;2017-01-27-09-09-23;2,0;3,0;100;2,0;1,0;3,0;0,0;row;1,0;True;False;False;1,90000009537;False;0,834999799728
CEN2000w;experiment;2017-01-27-09-09-23;2,0;4,0;100;0,0;1,0;2,0;3,0;column;0,0;False;True;False;1,79999995232;True;0,904000043869
CEN2000w;experiment;2017-01-27-09-09-23;2,0;5,0;100;3,0;1,0;2,0;0,0;column;0,0;False;False;False;1,30000019073;True;0,593999862671
CEN2000w;experiment;2017-01-27-09-09-23;2,0;6,0;100;2,0;1,0;0,0;3,0;column;1,0;False;False;False;1,13399982452;True;0,759999990463
CEN2000w;experiment;2017-01-27-09-09-23;2,0;7,0;100;1,0;0,0;2,0;3,0;column;0,0;False;True;False;1,26600003242;True;0,59600019455
CEN2000w;experiment;2017-01-27-09-09-23;2,0;8,0;100;2,0;3,0;1,0;0,0;row;0,0;False;True;True;1,60100007057;False;0,59299993515
CEN2000w;experiment;2017-01-27-09-09-23;2,0;9,0;100;1,0;3,0;0,0;2,0;column;1,0;True;False;True;1,53300023079;True;0,667000055313
CEN2000w;experiment;2017-01-27-09-09-23;2,0;10,0;100;1,0;0,0;3,0;2,0;column;1,0;False;False;False;1,132999897;True;1,23000001907
CEN2000w;experiment;2017-01-27-09-09-23;2,0;11,0;100;0,0;3,0;1,0;2,0;column;1,0;True;False;True;1,76699995995;True;0,662999868393
CEN2000w;experiment;2017-01-27-09-09-23;2,0;12,0;100;3,0;0,0;1,0;2,0;row;1,0;True;False;True;2,0680000782;True;1,45900011063
CEN2000w;experiment;2017-01-27-09-09-23;2,0;13,0;100;0,0;2,0;1,0;3,0;column;0,0;False;True;False;1,26699995995;True;0,698999881744
CEN2000w;experiment;2017-01-27-09-09-23;2,0;14,0;100;2,0;0,0;1,0;3,0;row;1,0;True;False;True;1,93300008774;True;1,23000001907
CEN2000w;experiment;2017-01-27-09-09-23;2,0;15,0;100;3,0;2,0;0,0;1,0;column;1,0;True;False;True;1,26599979401;True;0,726999998093
CEN2000w;experiment;2017-01-27-09-09-23;2,0;16,0;100;2,0;0,0;1,0;3,0;row;1,0;False;False;True;1,76699995995;False;1,17300009727
CEN2000w;experiment;2017-01-27-09-09-23;2,0;17,0;100;1,0;3,0;2,0;0,0;row;0,0;True;True;False;1,5;False;0,828000068665
CEN2000w;experiment;2017-01-27-09-09-23;2,0;18,0;100;2,0;0,0;3,0;1,0;column;1,0;True;True;False;1,63100004196;False;0,96799993515
CEN2000w;experiment;2017-01-27-09-09-23;2,0;19,0;100;1,0;0,0;2,0;3,0;column;1,0;True;False;True;1,66700005531;True;1,12999987602
CEN2000w;experiment;2017-01-27-09-09-23;2,0;20,0;100;1,0;2,0;0,0;3,0;row;1,0;False;False;True;1,39999985695;False;0,733999967575
CEN2000w;experiment;2017-01-27-09-09-23;2,0;21,0;100;3,0;0,0;2,0;1,0;column;0,0;True;True;True;1,19899988174;True;1,23000001907
CEN2000w;experiment;2017-01-27-09-09-23;2,0;22,0;100;0,0;3,0;2,0;1,0;row;0,0;False;True;False;1,86500000954;True;0,728000164032
CEN2000w;experiment;2017-01-27-09-09-23;2,0;23,0;100;1,0;3,0;2,0;0,0;column;1,0;True;False;True;1,367000103;True;1,15999984741
CEN2000w;experiment;2017-01-27-09-09-23;2,0;24,0;100;3,0;2,0;1,0;0,0;column;0,0;False;True;False;1,132999897;True;1,29399991035
CEN2000w;experiment;2017-01-27-09-09-23;2,0;25,0;100;3,0;2,0;0,0;1,0;row;0,0;False;True;False;1,33200001717;True;0,690999984741
CEN2000w;experiment;2017-01-27-09-09-23;2,0;26,0;100;0,0;2,0;3,0;1,0;column;1,0;False;False;False;1,66799998283;True;0,706000089645
CEN2000w;experiment;2017-01-27-09-09-23;2,0;27,0;100;2,0;1,0;0,0;3,0;row;0,0;False;True;False;1,5;True;0,871000051498
CEN2000w;experiment;2017-01-27-09-09-23;2,0;28,0;100;2,0;1,0;0,0;3,0;row;0,0;True;False;False;1,09899997711;False;0,904000043869
CEN2000w;experiment;2017-01-27-09-09-23;2,0;29,0;100;2,0;3,0;0,0;1,0;row;1,0;False;True;True;1,5;False;1,03399991989
CEN2000w;experiment;2017-01-27-09-09-23;2,0;30,0;100;3,0;1,0;2,0;0,0;row;0,0;True;True;True;1,43400001526;True;1,36100006104
CEN2000w;experiment;2017-01-27-09-09-23;2,0;31,0;100;2,0;0,0;3,0;1,0;row;0,0;False;False;False;1,76600003242;True;1,39499998093
CEN2000w;experiment;2017-01-27-09-09-23;2,0;32,0;100;2,0;1,0;0,0;3,0;row;1,0;True;False;True;1,23300004005;True;0,56500005722
CEN2000w;experiment;2017-01-27-09-09-23;2,0;33,0;100;2,0;0,0;3,0;1,0;row;0,0;True;True;False;1,03000020981;False;0,598999977112
CEN2000w;experiment;2017-01-27-09-09-23;2,0;34,0;100;0,0;3,0;2,0;1,0;column;1,0;False;False;False;1,46700000763;True;0,523999929428
CEN2000w;experiment;2017-01-27-09-09-23;2,0;35,0;100;2,0;3,0;0,0;1,0;row;0,0;False;True;True;1,132999897;False;1,19499993324
CEN2000w;experiment;2017-01-27-09-09-23;2,0;36,0;100;0,0;2,0;3,0;1,0;column;0,0;True;False;False;1,26699995995;False;0,936000108719
CEN2000w;experiment;2017-01-27-09-09-23;2,0;37,0;100;3,0;2,0;1,0;0,0;row;0,0;False;True;True;1,09999990463;False;0,53400015831
CEN2000w;experiment;2017-01-27-09-09-23;2,0;38,0;100;3,0;1,0;2,0;0,0;column;1,0;True;False;True;1,43299984932;True;0,726000070572
CEN2000w;experiment;2017-01-27-09-09-23;2,0;39,0;100;3,0;0,0;1,0;2,0;column;1,0;True;True;True;1,13400006294;True;0,864999771118
CEN2000w;experiment;2017-01-27-09-09-23;2,0;40,0;100;3,0;0,0;2,0;1,0;row;1,0;True;True;False;1,20000004768;False;0,828999996185
CEN2000w;experiment;2017-01-27-09-09-23;2,0;41,0;100;3,0;2,0;0,0;1,0;column;0,0;False;True;False;1,83399987221;True;1,2009999752
CEN2000w;experiment;2017-01-27-09-09-23;2,0;42,0;100;0,0;1,0;2,0;3,0;row;1,0;True;True;False;2,73500013351;False;1,39899992943
CEN2000w;experiment;2017-01-27-09-09-23;2,0;43,0;100;0,0;3,0;1,0;2,0;column;1,0;False;True;False;1,76600003242;True;1,19299983978
CEN2000w;experiment;2017-01-27-09-09-23;2,0;44,0;100;3,0;2,0;1,0;0,0;row;1,0;True;False;False;1,63399982452;False;0,761000156403
CEN2000w;experiment;2017-01-27-09-09-23;2,0;45,0;100;1,0;2,0;3,0;0,0;row;1,0;False;False;False;1,33299994469;True;0,769000053406
CEN2000w;experiment;2017-01-27-09-09-23;2,0;46,0;100;2,0;3,0;1,0;0,0;column;1,0;False;True;False;1,23399996758;True;1,02799987793
CEN2000w;experiment;2017-01-27-09-09-23;2,0;47,0;100;2,0;1,0;0,0;3,0;column;1,0;True;False;True;1,56699991226;True;1,16299986839
CEN2000w;experiment;2017-01-27-09-09-23;2,0;48,0;100;0,0;2,0;1,0;3,0;column;1,0;False;True;False;1,33200001717;True;0,625999927521
CEN2000w;experiment;2017-01-27-09-09-23;3,0;1,0;1000;1,0;2,0;3,0;0,0;row;0,0;True;True;False;1,53399991989;False;1,2349998951
CEN2000w;experiment;2017-01-27-09-09-23;3,0;2,0;1000;0,0;2,0;3,0;1,0;row;0,0;True;True;True;1,83299994469;True;1,40000009537
CEN2000w;experiment;2017-01-27-09-09-23;3,0;3,0;1000;2,0;3,0;1,0;0,0;column;1,0;True;False;False;1,0;False;0,594000101089
CEN2000w;experiment;2017-01-27-09-09-23;3,0;4,0;1000;3,0;1,0;0,0;2,0;column;1,0;False;True;False;1,13199996948;True;1,02699995041
CEN2000w;experiment;2017-01-27-09-09-23;3,0;5,0;1000;0,0;3,0;2,0;1,0;column;0,0;True;False;False;1,59999990463;False;0,997000217438
CEN2000w;experiment;2017-01-27-09-09-23;3,0;6,0;1000;3,0;1,0;0,0;2,0;row;1,0;False;True;False;1,20000004768;True;1,22799992561
CEN2000w;experiment;2017-01-27-09-09-23;3,0;7,0;1000;0,0;1,0;2,0;3,0;row;1,0;False;False;False;2,132999897;True;0,635999917984
CEN2000w;experiment;2017-01-27-09-09-23;3,0;8,0;1000;1,0;3,0;0,0;2,0;row;0,0;False;False;False;1,66799998283;True;1,05999994278
CEN2000w;experiment;2017-01-27-09-09-23;3,0;9,0;1000;2,0;0,0;3,0;1,0;row;1,0;False;False;False;2,39999985695;True;0,901999950409
CEN2000w;experiment;2017-01-27-09-09-23;3,0;10,0;1000;3,0;0,0;1,0;2,0;column;0,0;False;True;False;1,86599993706;True;1,0609998703
CEN2000w;experiment;2017-01-27-09-09-23;3,0;11,0;1000;2,0;3,0;0,0;1,0;row;1,0;False;False;False;1,90499997139;True;1,16799998283
CEN2000w;experiment;2017-01-27-09-09-23;3,0;12,0;1000;0,0;3,0;1,0;2,0;row;1,0;False;False;False;1,66499996185;True;0,53200006485
CEN2000w;experiment;2017-01-27-09-09-23;3,0;13,0;1000;0,0;1,0;2,0;3,0;column;0,0;False;True;False;1,93300008774;True;0,992000102997
CEN2000w;experiment;2017-01-27-09-09-23;3,0;14,0;1000;0,0;2,0;1,0;3,0;column;1,0;False;True;False;1,0;True;0,665999889374
CEN2000w;experiment;2017-01-27-09-09-23;3,0;15,0;1000;3,0;0,0;2,0;1,0;row;1,0;True;True;True;1,5;True;0,52799987793
CEN2000w;experiment;2017-01-27-09-09-23;3,0;16,0;1000;0,0;3,0;2,0;1,0;column;1,0;False;True;False;1,5;True;0,967000007629
CEN2000w;experiment;2017-01-27-09-09-23;3,0;17,0;1000;2,0;0,0;3,0;1,0;column;0,0;True;False;False;1,16699981689;False;0,931999921799
CEN2000w;experiment;2017-01-27-09-09-23;3,0;18,0;1000;0,0;1,0;2,0;3,0;column;1,0;True;True;True;1,16600012779;True;0,960999965668
CEN2000w;experiment;2017-01-27-09-09-23;3,0;19,0;1000;3,0;2,0;0,0;1,0;row;1,0;False;True;False;1,79999995232;True;1,16899991035
CEN2000w;experiment;2017-01-27-09-09-23;3,0;20,0;1000;0,0;2,0;3,0;1,0;row;0,0;False;False;False;1,76700019836;True;0,800999879837
CEN2000w;experiment;2017-01-27-09-09-23;3,0;21,0;1000;3,0;1,0;0,0;2,0;row;1,0;True;False;True;1,80000019073;True;0,825999975204
CEN2000w;experiment;2017-01-27-09-09-23;3,0;22,0;1000;1,0;0,0;3,0;2,0;row;0,0;True;False;True;2,23399996758;True;1,49499988556
CEN2000w;experiment;2017-01-27-09-09-23;3,0;23,0;1000;2,0;0,0;3,0;1,0;column;1,0;False;True;False;1,70000004768;True;1,39299988747
CEN2000w;experiment;2017-01-27-09-09-23;3,0;24,0;1000;0,0;3,0;1,0;2,0;column;1,0;False;False;False;1,46599984169;True;1,25899982452
CEN2000w;experiment;2017-01-27-09-09-23;3,0;25,0;1000;3,0;2,0;1,0;0,0;row;0,0;False;True;True;1,86599993706;False;1,42899990082
CEN2000w;experiment;2017-01-27-09-09-23;3,0;26,0;1000;3,0;1,0;0,0;2,0;column;0,0;False;True;False;1,5;True;0,5640001297
CEN2000w;experiment;2017-01-27-09-09-23;3,0;27,0;1000;2,0;3,0;0,0;1,0;column;0,0;False;True;False;1,76700019836;True;0,632999897003
CEN2000w;experiment;2017-01-27-09-09-23;3,0;28,0;1000;0,0;2,0;1,0;3,0;row;0,0;False;False;True;1,60100007057;False;1,40199995041
CEN2000w;experiment;2017-01-27-09-09-23;3,0;29,0;1000;1,0;0,0;3,0;2,0;row;1,0;False;False;False;1,96700000763;True;0,59500002861
CEN2000w;experiment;2017-01-27-09-09-23;3,0;30,0;1000;3,0;1,0;0,0;2,0;column;0,0;True;False;True;1,26699995995;True;1,10400009155
CEN2000w;experiment;2017-01-27-09-09-23;3,0;31,0;1000;1,0;3,0;2,0;0,0;column;1,0;True;True;True;1,33300018311;True;1,36400008202
CEN2000w;experiment;2017-01-27-09-09-23;3,0;32,0;1000;2,0;0,0;1,0;3,0;column;1,0;True;False;True;2,0;True;1,03200006485
CEN2000w;experiment;2017-01-27-09-09-23;3,0;33,0;1000;3,0;2,0;0,0;1,0;column;0,0;False;False;False;2,16600012779;True;1,03500008583
CEN2000w;experiment;2017-01-27-09-09-23;3,0;34,0;1000;0,0;3,0;2,0;1,0;row;0,0;True;False;True;2,632999897;True;0,667000055313
CEN2000w;experiment;2017-01-27-09-09-23;3,0;35,0;1000;3,0;0,0;1,0;2,0;column;1,0;True;True;True;1,16799998283;True;0,800999879837
CEN2000w;experiment;2017-01-27-09-09-23;3,0;36,0;1000;3,0;2,0;1,0;0,0;row;0,0;True;True;True;1,7990000248;True;1,02800011635
CEN2000w;experiment;2017-01-27-09-09-23;3,0;37,0;1000;2,0;0,0;3,0;1,0;row;0,0;True;False;True;1,96499991417;True;1,1289999485
CEN2000w;experiment;2017-01-27-09-09-23;3,0;38,0;1000;2,0;3,0;1,0;0,0;row;1,0;True;False;True;1,23300004005;True;0,861999988556
CEN2000w;experiment;2017-01-27-09-09-23;3,0;39,0;1000;3,0;1,0;0,0;2,0;row;0,0;False;False;False;1,83299994469;True;1,06700015068
CEN2000w;experiment;2017-01-27-09-09-23;3,0;40,0;1000;3,0;1,0;2,0;0,0;row;1,0;False;False;False;1,83300018311;True;0,661000013351
CEN2000w;experiment;2017-01-27-09-09-23;3,0;41,0;1000;3,0;1,0;0,0;2,0;column;1,0;True;False;True;1,46600008011;True;0,868000030518
CEN2000w;experiment;2017-01-27-09-09-23;3,0;42,0;1000;3,0;0,0;2,0;1,0;column;1,0;False;False;False;1,33300018311;True;1,29400014877
CEN2000w;experiment;2017-01-27-09-09-23;3,0;43,0;1000;2,0;1,0;3,0;0,0;column;1,0;False;False;False;1,26699995995;True;0,990999937057
CEN2000w;experiment;2017-01-27-09-09-23;3,0;44,0;1000;1,0;3,0;2,0;0,0;row;0,0;True;True;True;2,53500008583;True;1,09000015259
CEN2000w;experiment;2017-01-27-09-09-23;3,0;45,0;1000;0,0;2,0;1,0;3,0;column;0,0;False;True;False;2,0;True;1,22499990463
CEN2000w;experiment;2017-01-27-09-09-23;3,0;46,0;1000;0,0;3,0;1,0;2,0;row;0,0;True;True;True;1,7650001049;True;1,26999998093
CEN2000w;experiment;2017-01-27-09-09-23;3,0;47,0;1000;2,0;0,0;1,0;3,0;row;0,0;False;False;False;1,632999897;True;1,26300001144
CEN2000w;experiment;2017-01-27-09-09-23;3,0;48,0;1000;0,0;1,0;2,0;3,0;column;1,0;False;False;False;1,03299999237;True;0,661999940872
CEN2000w;experiment;2017-01-27-09-09-23;4,0;1,0;100;0,0;3,0;1,0;2,0;column;0,0;False;False;False;1,16699981689;True;1,23000001907
CEN2000w;experiment;2017-01-27-09-09-23;4,0;2,0;100;1,0;3,0;0,0;2,0;column;1,0;False;True;False;1,86600017548;True;1,06299996376
CEN2000w;experiment;2017-01-27-09-09-23;4,0;3,0;100;0,0;1,0;2,0;3,0;row;0,0;False;False;False;2,10000014305;True;0,526999950409
CEN2000w;experiment;2017-01-27-09-09-23;4,0;4,0;100;3,0;0,0;1,0;2,0;row;0,0;True;False;True;1,83300018311;True;0,763000011444
CEN2000w;experiment;2017-01-27-09-09-23;4,0;5,0;100;0,0;1,0;2,0;3,0;row;0,0;True;True;True;1,76699995995;True;1,36199998856
CEN2000w;experiment;2017-01-27-09-09-23;4,0;6,0;100;1,0;0,0;3,0;2,0;row;0,0;False;False;False;1,06700015068;True;0,670000076294
CEN2000w;experiment;2017-01-27-09-09-23;4,0;7,0;100;0,0;2,0;3,0;1,0;row;1,0;True;False;True;1,89900016785;True;1,02799987793
CEN2000w;experiment;2017-01-27-09-09-23;4,0;8,0;100;0,0;2,0;1,0;3,0;row;0,0;True;False;True;1,26699995995;True;0,828999996185
CEN2000w;experiment;2017-01-27-09-09-23;4,0;9,0;100;0,0;3,0;2,0;1,0;column;0,0;False;True;False;1,06799983978;True;0,5609998703
CEN2000w;experiment;2017-01-27-09-09-23;4,0;10,0;100;1,0;2,0;0,0;3,0;row;1,0;True;False;True;1,69999980927;True;0,767999887466
CEN2000w;experiment;2017-01-27-09-09-23;4,0;11,0;100;2,0;3,0;0,0;1,0;column;0,0;False;True;False;1,16599988937;True;1,39599990845
CEN2000w;experiment;2017-01-27-09-09-23;4,0;12,0;100;3,0;1,0;2,0;0,0;row;0,0;False;False;False;0,967000007629;True;0,637000083923
CEN2000w;experiment;2017-01-27-09-09-23;4,0;13,0;100;1,0;3,0;0,0;2,0;row;1,0;True;False;True;1,5;True;1,09899997711
CEN2000w;experiment;2017-01-27-09-09-23;4,0;14,0;100;1,0;3,0;0,0;2,0;column;0,0;True;True;True;1,39999985695;True;1,36100006104
CEN2000w;experiment;2017-01-27-09-09-23;4,0;15,0;100;1,0;0,0;2,0;3,0;row;1,0;True;True;True;2,43400001526;True;0,5640001297
CEN2000w;experiment;2017-01-27-09-09-23;4,0;16,0;100;2,0;3,0;1,0;0,0;column;0,0;False;True;False;1,16700005531;True;1,03100013733
CEN2000w;experiment;2017-01-27-09-09-23;4,0;17,0;100;3,0;1,0;2,0;0,0;row;1,0;True;False;True;1,53200006485;True;0,526999950409
CEN2000w;experiment;2017-01-27-09-09-23;4,0;18,0;100;3,0;1,0;0,0;2,0;row;0,0;True;False;True;1,26699995995;True;1,37199997902
CEN2000w;experiment;2017-01-27-09-09-23;4,0;19,0;100;0,0;2,0;1,0;3,0;row;1,0;False;True;False;1,53299999237;True;1,52699995041
CEN2000w;experiment;2017-01-27-09-09-23;4,0;20,0;100;0,0;1,0;3,0;2,0;column;1,0;False;False;False;1,76600003242;True;1,40000009537
CEN2000w;experiment;2017-01-27-09-09-23;4,0;21,0;100;0,0;1,0;3,0;2,0;column;0,0;True;True;True;1,33299994469;True;0,832000017166
CEN2000w;experiment;2017-01-27-09-09-23;4,0;22,0;100;3,0;2,0;0,0;1,0;column;0,0;True;True;True;1,16600012779;True;1,19499993324
CEN2000w;experiment;2017-01-27-09-09-23;4,0;23,0;100;2,0;3,0;1,0;0,0;row;1,0;False;False;False;1,56399989128;True;1,13100004196
CEN2000w;experiment;2017-01-27-09-09-23;4,0;24,0;100;0,0;3,0;1,0;2,0;row;0,0;True;True;True;1,93400001526;True;0,671999931335
CEN2000w;experiment;2017-01-27-09-09-23;4,0;25,0;100;1,0;3,0;0,0;2,0;row;1,0;False;True;False;1,46700000763;True;1,09799981117
CEN2000w;experiment;2017-01-27-09-09-23;4,0;26,0;100;0,0;3,0;1,0;2,0;row;1,0;False;False;False;1,33399987221;True;0,598999977112
CEN2000w;experiment;2017-01-27-09-09-23;4,0;27,0;100;2,0;1,0;3,0;0,0;column;0,0;False;False;False;1,367000103;True;1,00300002098
CEN2000w;experiment;2017-01-27-09-09-23;4,0;28,0;100;1,0;3,0;2,0;0,0;row;1,0;False;True;False;1,16599988937;True;1,52899980545
CEN2000w;experiment;2017-01-27-09-09-23;4,0;29,0;100;3,0;0,0;1,0;2,0;column;0,0;True;False;True;1,13300013542;True;1,5
CEN2000w;experiment;2017-01-27-09-09-23;4,0;30,0;100;0,0;3,0;2,0;1,0;row;1,0;True;True;True;2,10100007057;True;1,52999997139
CEN2000w;experiment;2017-01-27-09-09-23;4,0;31,0;100;2,0;0,0;1,0;3,0;column;1,0;True;False;True;1,63300013542;True;0,666000127792
CEN2000w;experiment;2017-01-27-09-09-23;4,0;32,0;100;1,0;3,0;2,0;0,0;column;0,0;False;True;False;2,0;True;1,5
CEN2000w;experiment;2017-01-27-09-09-23;4,0;33,0;100;3,0;0,0;2,0;1,0;column;1,0;False;False;False;1,46599984169;True;0,797999858856
CEN2000w;experiment;2017-01-27-09-09-23;4,0;34,0;100;0,0;2,0;3,0;1,0;row;1,0;False;True;False;1,83400011063;True;0,735000133514
CEN2000w;experiment;2017-01-27-09-09-23;4,0;35,0;100;2,0;0,0;1,0;3,0;column;1,0;False;False;True;1,69999980927;False;0,871999979019
CEN2000w;experiment;2017-01-27-09-09-23;4,0;36,0;100;2,0;3,0;0,0;1,0;column;1,0;True;False;True;1,53400015831;True;0,59600019455
CEN2000w;experiment;2017-01-27-09-09-23;4,0;37,0;100;0,0;3,0;2,0;1,0;column;1,0;True;False;True;1,43300008774;True;1,46300005913
CEN2000w;experiment;2017-01-27-09-09-23;4,0;38,0;100;0,0;2,0;3,0;1,0;column;1,0;True;False;True;1,2009999752;True;1,09800004959
CEN2000w;experiment;2017-01-27-09-09-23;4,0;39,0;100;1,0;0,0;2,0;3,0;row;1,0;False;True;False;1,20000004768;True;1,20000004768
CEN2000w;experiment;2017-01-27-09-09-23;4,0;40,0;100;0,0;2,0;1,0;3,0;column;0,0;True;True;True;1,09899997711;True;1,09699988365
CEN2000w;experiment;2017-01-27-09-09-23;4,0;41,0;100;0,0;1,0;2,0;3,0;column;1,0;True;True;True;1,23400020599;True;1,19900012016
CEN2000w;experiment;2017-01-27-09-09-23;4,0;42,0;100;1,0;0,0;3,0;2,0;row;1,0;False;False;False;1,13300013542;True;1,26299977303
CEN2000w;experiment;2017-01-27-09-09-23;4,0;43,0;100;1,0;0,0;2,0;3,0;column;1,0;False;True;False;1,5;True;0,528000116348
CEN2000w;experiment;2017-01-27-09-09-23;4,0;44,0;100;1,0;3,0;2,0;0,0;column;1,0;False;False;False;1,19799995422;True;1,06699991226
CEN2000w;experiment;2017-01-27-09-09-23;4,0;45,0;100;0,0;1,0;3,0;2,0;row;0,0;True;True;True;1,13400006294;True;1,29500007629
CEN2000w;experiment;2017-01-27-09-09-23;4,0;46,0;100;3,0;2,0;0,0;1,0;row;1,0;False;False;False;1,5;True;1,0640001297
CEN2000w;experiment;2017-01-27-09-09-23;4,0;47,0;100;2,0;3,0;1,0;0,0;column;0,0;True;True;True;1,53299999237;True;0,561000108719
CEN2000w;experiment;2017-01-27-09-09-23;4,0;48,0;100;1,0;3,0;2,0;0,0;row;1,0;True;False;True;1,63400006294;True;1,49099993706
CEN2000w;experiment;2017-01-27-09-09-23;5,0;1,0;1000;0,0;2,0;3,0;1,0;column;0,0;True;False;True;1,16599988937;True;0,969000101089
CEN2000w;experiment;2017-01-27-09-09-23;5,0;2,0;1000;0,0;3,0;1,0;2,0;column;1,0;True;True;True;0,900000095367;True;1,39400005341
CEN2000w;experiment;2017-01-27-09-09-23;5,0;3,0;1000;0,0;2,0;3,0;1,0;column;1,0;True;False;True;1,53299999237;True;1,06799983978
CEN2000w;experiment;2017-01-27-09-09-23;5,0;4,0;1000;3,0;0,0;2,0;1,0;row;0,0;False;True;False;1,66400003433;True;0,701000213623
CEN2000w;experiment;2017-01-27-09-09-23;5,0;5,0;1000;0,0;1,0;3,0;2,0;row;0,0;False;True;False;1,43299984932;True;1,35899996758
CEN2000w;experiment;2017-01-27-09-09-23;5,0;6,0;1000;2,0;1,0;3,0;0,0;column;1,0;True;True;True;1,132999897;True;1,39400005341
CEN2000w;experiment;2017-01-27-09-09-23;5,0;7,0;1000;2,0;1,0;3,0;0,0;column;0,0;False;True;False;1,56699991226;True;0,759999990463
CEN2000w;experiment;2017-01-27-09-09-23;5,0;8,0;1000;3,0;1,0;2,0;0,0;column;1,0;False;False;True;1,59999990463;False;0,636000156403
CEN2000w;experiment;2017-01-27-09-09-23;5,0;9,0;1000;0,0;1,0;3,0;2,0;column;0,0;True;False;True;1,46600008011;True;1,4390001297
CEN2000w;experiment;2017-01-27-09-09-23;5,0;10,0;1000;1,0;0,0;2,0;3,0;row;1,0;True;False;True;2,29999995232;True;1,15899991989
CEN2000w;experiment;2017-01-27-09-09-23;5,0;11,0;1000;2,0;1,0;0,0;3,0;row;1,0;False;False;False;1,43400001526;True;1,06100010872
CEN2000w;experiment;2017-01-27-09-09-23;5,0;12,0;1000;3,0;0,0;2,0;1,0;row;0,0;True;False;True;2,40100002289;True;0,55999994278
CEN2000w;experiment;2017-01-27-09-09-23;5,0;13,0;1000;2,0;0,0;3,0;1,0;row;0,0;False;False;False;2,06700015068;True;0,892999887466
CEN2000w;experiment;2017-01-27-09-09-23;5,0;14,0;1000;1,0;3,0;2,0;0,0;row;0,0;False;False;False;2,10100007057;True;1,00199985504
CEN2000w;experiment;2017-01-27-09-09-23;5,0;15,0;1000;1,0;0,0;2,0;3,0;row;0,0;True;False;True;1,79999995232;True;1,26099991798
CEN2000w;experiment;2017-01-27-09-09-23;5,0;16,0;1000;1,0;2,0;0,0;3,0;column;0,0;True;True;True;1,56599998474;True;1,00600004196
CEN2000w;experiment;2017-01-27-09-09-23;5,0;17,0;1000;3,0;0,0;2,0;1,0;column;0,0;True;True;True;1,46799993515;True;1,16000008583
CEN2000w;experiment;2017-01-27-09-09-23;5,0;18,0;1000;2,0;1,0;0,0;3,0;column;1,0;True;True;True;1,06599998474;True;1,36000013351
CEN2000w;experiment;2017-01-27-09-09-23;5,0;19,0;1000;0,0;3,0;2,0;1,0;row;0,0;False;False;False;1,39999985695;True;1,00099992752
CEN2000w;experiment;2017-01-27-09-09-23;5,0;20,0;1000;3,0;0,0;1,0;2,0;row;0,0;False;True;False;2,16600012779;True;1,15599989891
CEN2000w;experiment;2017-01-27-09-09-23;5,0;21,0;1000;3,0;0,0;2,0;1,0;row;1,0;False;False;False;1,10000014305;True;1,02699995041
CEN2000w;experiment;2017-01-27-09-09-23;5,0;22,0;1000;0,0;3,0;1,0;2,0;row;1,0;True;True;False;1,40000009537;False;0,664000034332
CEN2000w;experiment;2017-01-27-09-09-23;5,0;23,0;1000;3,0;0,0;2,0;1,0;column;1,0;True;True;True;0,866000175476;True;0,568000078201
CEN2000w;experiment;2017-01-27-09-09-23;5,0;24,0;1000;3,0;2,0;0,0;1,0;row;1,0;True;True;False;1,40000009537;False;0,536000013351
CEN2000w;experiment;2017-01-27-09-09-23;5,0;25,0;1000;1,0;0,0;3,0;2,0;column;0,0;False;True;False;1,36600017548;True;1,05900001526
CEN2000w;experiment;2017-01-27-09-09-23;5,0;26,0;1000;3,0;2,0;0,0;1,0;column;1,0;False;True;False;1,0;True;0,597999811172
CEN2000w;experiment;2017-01-27-09-09-23;5,0;27,0;1000;1,0;2,0;3,0;0,0;row;0,0;False;False;False;1,20000004768;True;1,15999984741
CEN2000w;experiment;2017-01-27-09-09-23;5,0;28,0;1000;2,0;0,0;3,0;1,0;row;1,0;True;True;True;1,66700005531;True;1,2009999752
CEN2000w;experiment;2017-01-27-09-09-23;5,0;29,0;1000;0,0;2,0;3,0;1,0;column;0,0;False;True;False;1,06799983978;True;0,959999799728
CEN2000w;experiment;2017-01-27-09-09-23;5,0;30,0;1000;2,0;3,0;1,0;0,0;row;0,0;False;True;False;1,36699986458;True;0,805999994278
CEN2000w;experiment;2017-01-27-09-09-23;5,0;31,0;1000;0,0;3,0;2,0;1,0;column;1,0;True;False;False;1,0;False;0,598000049591
CEN2000w;experiment;2017-01-27-09-09-23;5,0;32,0;1000;1,0;2,0;3,0;0,0;column;1,0;False;False;True;1,03400015831;False;0,763000011444
CEN2000w;experiment;2017-01-27-09-09-23;5,0;33,0;1000;0,0;1,0;3,0;2,0;column;1,0;False;False;False;1,90000009537;True;0,701999902725
CEN2000w;experiment;2017-01-27-09-09-23;5,0;34,0;1000;2,0;1,0;0,0;3,0;row;0,0;False;True;False;2,367000103;True;1,25999999046
CEN2000w;experiment;2017-01-27-09-09-23;5,0;35,0;1000;1,0;2,0;0,0;3,0;column;1,0;True;False;False;2,79600000381;False;1,02699995041
CEN2000w;experiment;2017-01-27-09-09-23;5,0;36,0;1000;2,0;3,0;0,0;1,0;column;1,0;False;False;False;1,0649998188;True;1,16000008583
CEN2000w;experiment;2017-01-27-09-09-23;5,0;37,0;1000;1,0;0,0;2,0;3,0;column;1,0;True;False;True;0,967000007629;True;1,12599992752
CEN2000w;experiment;2017-01-27-09-09-23;5,0;38,0;1000;0,0;2,0;3,0;1,0;column;1,0;False;True;False;1,26599979401;True;1,40599989891
CEN2000w;experiment;2017-01-27-09-09-23;5,0;39,0;1000;0,0;2,0;3,0;1,0;row;1,0;True;True;False;1,03399991989;False;1,50699996948
CEN2000w;experiment;2017-01-27-09-09-23;5,0;40,0;1000;0,0;3,0;1,0;2,0;column;0,0;True;True;True;1,632999897;True;1,26099991798
CEN2000w;experiment;2017-01-27-09-09-23;5,0;41,0;1000;0,0;1,0;3,0;2,0;row;1,0;True;True;False;1,53299999237;False;0,692999839783
CEN2000w;experiment;2017-01-27-09-09-23;5,0;42,0;1000;1,0;2,0;3,0;0,0;row;1,0;False;False;False;1,79999995232;True;1,43400001526
CEN2000w;experiment;2017-01-27-09-09-23;5,0;43,0;1000;1,0;3,0;2,0;0,0;column;1,0;False;True;False;2,29999995232;True;0,55999994278
CEN2000w;experiment;2017-01-27-09-09-23;5,0;44,0;1000;1,0;2,0;3,0;0,0;column;0,0;True;True;True;2,06599998474;True;0,603000164032
CEN2000w;experiment;2017-01-27-09-09-23;5,0;45,0;1000;3,0;0,0;1,0;2,0;column;0,0;True;False;True;2,26699995995;True;0,632999897003
CEN2000w;experiment;2017-01-27-09-09-23;5,0;46,0;1000;3,0;1,0;2,0;0,0;row;0,0;False;False;False;2,03299999237;True;1,06900000572
CEN2000w;experiment;2017-01-27-09-09-23;5,0;47,0;1000;1,0;0,0;3,0;2,0;row;1,0;True;True;True;2,46700000763;True;0,601000070572
CEN2000w;experiment;2017-01-27-09-09-23;5,0;48,0;1000;3,0;0,0;2,0;1,0;column;0,0;False;True;False;1,93400001526;True;0,662999868393
CEN2000w;experiment;2017-01-27-09-09-23;6,0;1,0;-100;0,0;3,0;1,0;2,0;row;1,0;True;False;True;1,85000014305;True;0,567999839783
CEN2000w;experiment;2017-01-27-09-09-23;6,0;2,0;-100;2,0;1,0;0,0;3,0;column;0,0;True;False;True;1,882999897;True;1,16799998283
CEN2000w;experiment;2017-01-27-09-09-23;6,0;3,0;-100;1,0;2,0;0,0;3,0;row;0,0;True;False;True;1,98300004005;True;1,36899995804
CEN2000w;experiment;2017-01-27-09-09-23;6,0;4,0;-100;3,0;2,0;1,0;0,0;row;1,0;True;False;True;1,28399991989;True;0,926999807358
CEN2000w;experiment;2017-01-27-09-09-23;6,0;5,0;-100;1,0;0,0;2,0;3,0;row;0,0;True;False;False;1,85100007057;False;1,3710000515
CEN2000w;experiment;2017-01-27-09-09-23;6,0;6,0;-100;1,0;0,0;2,0;3,0;row;1,0;True;False;True;1,61699986458;True;0,667999982834
CEN2000w;experiment;2017-01-27-09-09-23;6,0;7,0;-100;0,0;3,0;1,0;2,0;row;0,0;False;False;False;1,78399991989;True;0,631000041962
CEN2000w;experiment;2017-01-27-09-09-23;6,0;8,0;-100;2,0;3,0;0,0;1,0;row;0,0;True;True;True;1,84999990463;True;0,837000131607
CEN2000w;experiment;2017-01-27-09-09-23;6,0;9,0;-100;3,0;1,0;0,0;2,0;column;0,0;True;False;True;1,21500015259;True;0,90499997139
CEN2000w;experiment;2017-01-27-09-09-23;6,0;10,0;-100;3,0;0,0;2,0;1,0;column;0,0;True;True;True;1,04999995232;True;0,928999900818
CEN2000w;experiment;2017-01-27-09-09-23;6,0;11,0;-100;1,0;3,0;2,0;0,0;column;0,0;False;False;False;0,949000120163;True;0,539000034332
CEN2000w;experiment;2017-01-27-09-09-23;6,0;12,0;-100;0,0;1,0;2,0;3,0;column;1,0;False;False;False;2,38400006294;True;1,23900008202
CEN2000w;experiment;2017-01-27-09-09-23;6,0;13,0;-100;0,0;3,0;2,0;1,0;row;0,0;True;True;True;1,35199999809;True;0,868999958038
CEN2000w;experiment;2017-01-27-09-09-23;6,0;14,0;-100;0,0;1,0;2,0;3,0;row;0,0;True;False;True;1,14800000191;True;0,700000047684
CEN2000w;experiment;2017-01-27-09-09-23;6,0;15,0;-100;1,0;3,0;0,0;2,0;row;0,0;False;False;True;1,65000009537;False;0,871000051498
CEN2000w;experiment;2017-01-27-09-09-23;6,0;16,0;-100;1,0;0,0;3,0;2,0;row;0,0;False;False;False;1,41600012779;True;0,759999990463
CEN2000w;experiment;2017-01-27-09-09-23;6,0;17,0;-100;1,0;2,0;0,0;3,0;column;0,0;False;True;False;1,34999990463;True;0,531000137329
CEN2000w;experiment;2017-01-27-09-09-23;6,0;18,0;-100;2,0;3,0;0,0;1,0;row;0,0;False;True;False;1,18499994278;True;0,628000020981
CEN2000w;experiment;2017-01-27-09-09-23;6,0;19,0;-100;2,0;3,0;0,0;1,0;row;1,0;False;True;False;1,41599988937;True;0,802000045776
CEN2000w;experiment;2017-01-27-09-09-23;6,0;20,0;-100;1,0;3,0;2,0;0,0;column;1,0;True;True;True;1,41700005531;True;1,26200008392
CEN2000w;experiment;2017-01-27-09-09-23;6,0;21,0;-100;0,0;1,0;3,0;2,0;column;1,0;False;True;False;1,54999995232;True;1,06999993324
CEN2000w;experiment;2017-01-27-09-09-23;6,0;22,0;-100;3,0;2,0;0,0;1,0;row;1,0;True;False;True;1,41700005531;True;1,12700009346
CEN2000w;experiment;2017-01-27-09-09-23;6,0;23,0;-100;2,0;0,0;1,0;3,0;row;0,0;True;True;True;2,01699995995;True;1,4279999733
CEN2000w;experiment;2017-01-27-09-09-23;6,0;24,0;-100;2,0;0,0;3,0;1,0;row;0,0;True;True;True;1,21700000763;True;1,16799998283
CEN2000w;experiment;2017-01-27-09-09-23;6,0;25,0;-100;1,0;0,0;3,0;2,0;column;1,0;True;True;True;1,84999990463;True;1,46000003815
CEN2000w;experiment;2017-01-27-09-09-23;6,0;26,0;-100;1,0;0,0;3,0;2,0;row;1,0;False;True;False;1,617000103;True;0,602999925613
CEN2000w;experiment;2017-01-27-09-09-23;6,0;27,0;-100;3,0;2,0;1,0;0,0;column;1,0;False;False;False;1,48300004005;True;1,50099992752
CEN2000w;experiment;2017-01-27-09-09-23;6,0;28,0;-100;2,0;1,0;0,0;3,0;column;1,0;False;False;True;1,68400001526;False;0,561000108719
CEN2000w;experiment;2017-01-27-09-09-23;6,0;29,0;-100;1,0;0,0;2,0;3,0;row;0,0;False;False;False;1,51599979401;True;1,22899985313
CEN2000w;experiment;2017-01-27-09-09-23;6,0;30,0;-100;1,0;2,0;0,0;3,0;column;0,0;True;False;True;1,28399991989;True;1,29600000381
CEN2000w;experiment;2017-01-27-09-09-23;6,0;31,0;-100;3,0;1,0;0,0;2,0;column;1,0;False;False;False;1,58400011063;True;0,866999864578
CEN2000w;experiment;2017-01-27-09-09-23;6,0;32,0;-100;3,0;2,0;0,0;1,0;column;0,0;True;True;True;1,01599979401;True;0,671999931335
CEN2000w;experiment;2017-01-27-09-09-23;6,0;33,0;-100;1,0;3,0;0,0;2,0;column;1,0;True;False;True;1,18200016022;True;0,633000135422
CEN2000w;experiment;2017-01-27-09-09-23;6,0;34,0;-100;3,0;0,0;1,0;2,0;column;1,0;True;True;True;1,45000004768;True;1,46300005913
CEN2000w;experiment;2017-01-27-09-09-23;6,0;35,0;-100;2,0;0,0;3,0;1,0;column;1,0;True;False;True;1,0490000248;True;1,36199998856
CEN2000w;experiment;2017-01-27-09-09-23;6,0;36,0;-100;0,0;2,0;1,0;3,0;column;0,0;False;False;False;1,81700015068;True;1,2009999752
CEN2000w;experiment;2017-01-27-09-09-23;6,0;37,0;-100;3,0;2,0;0,0;1,0;row;1,0;False;False;False;1,58399987221;True;0,928999900818
CEN2000w;experiment;2017-01-27-09-09-23;6,0;38,0;-100;3,0;0,0;1,0;2,0;column;1,0;False;False;False;1,51600003242;True;1,39599990845
CEN2000w;experiment;2017-01-27-09-09-23;6,0;39,0;-100;0,0;1,0;2,0;3,0;row;1,0;False;False;False;2,34999990463;True;1,06799983978
CEN2000w;experiment;2017-01-27-09-09-23;6,0;40,0;-100;1,0;0,0;3,0;2,0;column;0,0;True;False;True;1,0150001049;True;1,42899990082
CEN2000w;experiment;2017-01-27-09-09-23;6,0;41,0;-100;3,0;0,0;2,0;1,0;row;1,0;True;True;True;1,24900007248;True;1,132999897
CEN2000w;experiment;2017-01-27-09-09-23;6,0;42,0;-100;3,0;0,0;1,0;2,0;column;0,0;False;True;True;2,94999980927;False;1,49800014496
CEN2000w;experiment;2017-01-27-09-09-23;6,0;43,0;-100;1,0;3,0;0,0;2,0;row;1,0;True;False;True;1,41700005531;True;0,703999996185
CEN2000w;experiment;2017-01-27-09-09-23;6,0;44,0;-100;0,0;3,0;2,0;1,0;column;1,0;False;False;False;1,25;True;0,666000127792
CEN2000w;experiment;2017-01-27-09-09-23;6,0;45,0;-100;1,0;3,0;0,0;2,0;row;0,0;True;True;True;1,14999985695;True;0,962999820709
CEN2000w;experiment;2017-01-27-09-09-23;6,0;46,0;-100;0,0;2,0;1,0;3,0;row;0,0;False;True;False;1,71700000763;True;0,666000127792
CEN2000w;experiment;2017-01-27-09-09-23;6,0;47,0;-100;3,0;1,0;0,0;2,0;row;1,0;True;True;True;1,28399991989;True;1,4960000515
CEN2000w;experiment;2017-01-27-09-09-23;6,0;48,0;-100;1,0;3,0;0,0;2,0;column;1,0;False;False;False;1,4509999752;True;1,23600006104
CEN2000w;experiment;2017-01-27-09-09-23;7,0;1,0;-100;1,0;2,0;3,0;0,0;row;0,0;True;True;False;1,21700000763;False;0,759999990463
CEN2000w;experiment;2017-01-27-09-09-23;7,0;2,0;-100;1,0;2,0;3,0;0,0;row;1,0;True;True;True;1,04800009727;True;1,36599993706
CEN2000w;experiment;2017-01-27-09-09-23;7,0;3,0;-100;0,0;3,0;2,0;1,0;row;0,0;False;False;False;1,38199996948;True;1,09699988365
CEN2000w;experiment;2017-01-27-09-09-23;7,0;4,0;-100;3,0;1,0;2,0;0,0;column;0,0;True;False;True;1,41299986839;True;1,39700007439
CEN2000w;experiment;2017-01-27-09-09-23;7,0;5,0;-100;3,0;0,0;1,0;2,0;row;0,0;True;True;True;1,84800004959;True;1,22699999809
CEN2000w;experiment;2017-01-27-09-09-23;7,0;6,0;-100;2,0;0,0;1,0;3,0;column;0,0;True;True;True;0,915999889374;True;0,833999872208
CEN2000w;experiment;2017-01-27-09-09-23;7,0;7,0;-100;2,0;0,0;3,0;1,0;column;0,0;True;False;True;0,848999977112;True;1,367000103
CEN2000w;experiment;2017-01-27-09-09-23;7,0;8,0;-100;1,0;0,0;2,0;3,0;column;0,0;False;False;False;1,08300018311;True;1,46800017357
CEN2000w;experiment;2017-01-27-09-09-23;7,0;9,0;-100;3,0;0,0;1,0;2,0;column;0,0;True;False;True;1,2460000515;True;1,39499998093
CEN2000w;experiment;2017-01-27-09-09-23;7,0;10,0;-100;2,0;1,0;3,0;0,0;column;1,0;False;False;False;1,31599998474;True;0,625
CEN2000w;experiment;2017-01-27-09-09-23;7,0;11,0;-100;2,0;1,0;0,0;3,0;row;0,0;True;False;True;1,71599984169;True;1,03499984741
CEN2000w;experiment;2017-01-27-09-09-23;7,0;12,0;-100;1,0;0,0;3,0;2,0;row;0,0;True;False;True;1,31699991226;True;0,894000053406
CEN2000w;experiment;2017-01-27-09-09-23;7,0;13,0;-100;1,0;2,0;0,0;3,0;row;1,0;True;True;False;1,18299984932;False;0,935000181198
CEN2000w;experiment;2017-01-27-09-09-23;7,0;14,0;-100;1,0;0,0;2,0;3,0;column;1,0;False;False;False;1,41699981689;True;1,20199990273
CEN2000w;experiment;2017-01-27-09-09-23;7,0;15,0;-100;3,0;1,0;2,0;0,0;column;1,0;True;False;True;1,38199996948;True;1,23599982262
CEN2000w;experiment;2017-01-27-09-09-23;7,0;16,0;-100;1,0;2,0;3,0;0,0;row;0,0;False;True;False;1,51600003242;True;0,960999965668
CEN2000w;experiment;2017-01-27-09-09-23;7,0;17,0;-100;3,0;2,0;1,0;0,0;row;1,0;False;True;False;1,61699986458;True;1,12700009346
CEN2000w;experiment;2017-01-27-09-09-23;7,0;18,0;-100;2,0;3,0;0,0;1,0;column;1,0;True;False;True;1,31500005722;True;1,03699994087
CEN2000w;experiment;2017-01-27-09-09-23;7,0;19,0;-100;0,0;3,0;2,0;1,0;row;1,0;False;False;False;1,31700015068;True;1,49499988556
CEN2000w;experiment;2017-01-27-09-09-23;7,0;20,0;-100;2,0;0,0;1,0;3,0;column;0,0;False;True;False;1,71700000763;True;0,803999900818
CEN2000w;experiment;2017-01-27-09-09-23;7,0;21,0;-100;0,0;1,0;2,0;3,0;column;0,0;True;False;True;1,18400001526;True;0,729999780655
CEN2000w;experiment;2017-01-27-09-09-23;7,0;22,0;-100;3,0;2,0;1,0;0,0;column;1,0;True;False;True;1,1819999218;True;0,832000017166
CEN2000w;experiment;2017-01-27-09-09-23;7,0;23,0;-100;2,0;0,0;1,0;3,0;row;0,0;False;True;False;1,38199996948;True;1,36999988556
CEN2000w;experiment;2017-01-27-09-09-23;7,0;24,0;-100;0,0;2,0;1,0;3,0;column;1,0;False;False;False;1,88399982452;True;1,43400001526
CEN2000w;experiment;2017-01-27-09-09-23;7,0;25,0;-100;0,0;3,0;2,0;1,0;column;0,0;False;True;True;1,38400006294;False;1,16100001335
CEN2000w;experiment;2017-01-27-09-09-23;7,0;26,0;-100;3,0;2,0;1,0;0,0;row;0,0;True;False;True;1,11699986458;True;0,572999954224
CEN2000w;experiment;2017-01-27-09-09-23;7,0;27,0;-100;3,0;1,0;0,0;2,0;row;1,0;False;False;False;1,21700000763;True;0,729000091553
CEN2000w;experiment;2017-01-27-09-09-23;7,0;28,0;-100;1,0;0,0;2,0;3,0;row;1,0;False;False;False;1,18099999428;True;0,929999828339
CEN2000w;experiment;2017-01-27-09-09-23;7,0;29,0;-100;0,0;2,0;1,0;3,0;column;1,0;True;True;True;1,15100002289;True;0,595999956131
CEN2000w;experiment;2017-01-27-09-09-23;7,0;30,0;-100;2,0;3,0;1,0;0,0;row;0,0;True;False;False;1,48200011253;False;0,895000219345
CEN2000w;experiment;2017-01-27-09-09-23;7,0;31,0;-100;0,0;2,0;3,0;1,0;row;0,0;False;False;False;2,34899997711;True;1,36199998856
CEN2000w;experiment;2017-01-27-09-09-23;7,0;32,0;-100;3,0;1,0;2,0;0,0;column;0,0;False;True;False;1,31500005722;True;0,658999919891
CEN2000w;experiment;2017-01-27-09-09-23;7,0;33,0;-100;2,0;1,0;0,0;3,0;column;0,0;False;True;False;1,28399991989;True;0,700000047684
CEN2000w;experiment;2017-01-27-09-09-23;7,0;34,0;-100;0,0;1,0;3,0;2,0;row;1,0;False;True;False;1,08299994469;True;1,2650001049
CEN2000w;experiment;2017-01-27-09-09-23;7,0;35,0;-100;2,0;3,0;0,0;1,0;column;0,0;True;True;True;1,34999990463;True;0,827999830246
CEN2000w;experiment;2017-01-27-09-09-23;7,0;36,0;-100;1,0;0,0;3,0;2,0;column;0,0;False;False;False;1,18299984932;True;1,17100000381
CEN2000w;experiment;2017-01-27-09-09-23;7,0;37,0;-100;1,0;2,0;0,0;3,0;row;1,0;False;True;False;1,48300004005;True;1,46399998665
CEN2000w;experiment;2017-01-27-09-09-23;7,0;38,0;-100;1,0;0,0;3,0;2,0;column;1,0;False;False;False;1,34999990463;True;1,22800016403
CEN2000w;experiment;2017-01-27-09-09-23;7,0;39,0;-100;0,0;2,0;1,0;3,0;row;1,0;True;True;True;1,08400011063;True;1,13400006294
CEN2000w;experiment;2017-01-27-09-09-23;7,0;40,0;-100;2,0;3,0;1,0;0,0;row;0,0;False;True;False;1,48299980164;True;0,96599984169
CEN2000w;experiment;2017-01-27-09-09-23;7,0;41,0;-100;1,0;2,0;3,0;0,0;column;1,0;True;True;True;1,15100002289;True;0,837000131607
CEN2000w;experiment;2017-01-27-09-09-23;7,0;42,0;-100;0,0;3,0;2,0;1,0;column;0,0;True;True;True;1,04800009727;True;0,634999990463
CEN2000w;experiment;2017-01-27-09-09-23;7,0;43,0;-100;0,0;3,0;2,0;1,0;row;1,0;True;True;True;1,64999985695;True;1,26300001144
CEN2000w;experiment;2017-01-27-09-09-23;7,0;44,0;-100;2,0;1,0;3,0;0,0;row;1,0;True;False;True;1,45000004768;True;1,23799991608
CEN2000w;experiment;2017-01-27-09-09-23;7,0;45,0;-100;3,0;1,0;0,0;2,0;row;0,0;False;True;False;1,0490000248;True;1,42899990082
CEN2000w;experiment;2017-01-27-09-09-23;7,0;46,0;-100;3,0;2,0;1,0;0,0;row;0,0;False;False;False;1,28199982643;True;1,13399982452
CEN2000w;experiment;2017-01-27-09-09-23;7,0;47,0;-100;1,0;3,0;2,0;0,0;column;1,0;False;False;False;1,21700000763;True;1,16100001335
CEN2000w;experiment;2017-01-27-09-09-23;7,0;48,0;-100;0,0;2,0;3,0;1,0;column;1,0;True;False;False;1,15000009537;False;1,16400003433
CEN2000w;experiment;2017-01-27-09-09-23;8,0;1,0;1000;1,0;3,0;0,0;2,0;column;1,0;True;True;True;1,13300013542;True;1,46399998665
CEN2000w;experiment;2017-01-27-09-09-23;8,0;2,0;1000;2,0;0,0;1,0;3,0;row;0,0;True;True;True;1,69999980927;True;0,957999944687
CEN2000w;experiment;2017-01-27-09-09-23;8,0;3,0;1000;2,0;1,0;3,0;0,0;row;1,0;False;True;False;1,132999897;True;1,29500007629
CEN2000w;experiment;2017-01-27-09-09-23;8,0;4,0;1000;2,0;0,0;1,0;3,0;column;0,0;True;True;False;0,96599984169;False;1,06299996376
CEN2000w;experiment;2017-01-27-09-09-23;8,0;5,0;1000;2,0;1,0;0,0;3,0;column;0,0;False;False;False;1,5;True;1,09400010109
CEN2000w;experiment;2017-01-27-09-09-23;8,0;6,0;1000;0,0;2,0;1,0;3,0;row;1,0;False;False;False;1,20000004768;True;1,0680000782
CEN2000w;experiment;2017-01-27-09-09-23;8,0;7,0;1000;3,0;1,0;2,0;0,0;column;1,0;True;True;False;1,26600003242;False;1,20600008965
CEN2000w;experiment;2017-01-27-09-09-23;8,0;8,0;1000;1,0;2,0;0,0;3,0;row;0,0;True;False;True;2,0;True;0,991999864578
CEN2000w;experiment;2017-01-27-09-09-23;8,0;9,0;1000;1,0;3,0;2,0;0,0;column;0,0;True;False;False;0,934000015259;False;0,791999816895
CEN2000w;experiment;2017-01-27-09-09-23;8,0;10,0;1000;0,0;1,0;3,0;2,0;column;1,0;True;True;True;1,5;True;0,528000116348
CEN2000w;experiment;2017-01-27-09-09-23;8,0;11,0;1000;2,0;1,0;0,0;3,0;row;0,0;True;True;True;2,26600003242;True;0,668999910355
CEN2000w;experiment;2017-01-27-09-09-23;8,0;12,0;1000;2,0;3,0;0,0;1,0;column;1,0;True;True;False;1,53500008583;False;1,22499990463
CEN2000w;experiment;2017-01-27-09-09-23;8,0;13,0;1000;3,0;2,0;1,0;0,0;column;1,0;True;True;True;1,43300008774;True;0,700999975204
CEN2000w;experiment;2017-01-27-09-09-23;8,0;14,0;1000;3,0;1,0;2,0;0,0;row;1,0;True;True;True;3,132999897;True;0,930000066757
CEN2000w;experiment;2017-01-27-09-09-23;8,0;15,0;1000;1,0;0,0;2,0;3,0;column;1,0;False;True;False;1,36400008202;True;0,526999950409
CEN2000w;experiment;2017-01-27-09-09-23;8,0;16,0;1000;2,0;0,0;1,0;3,0;column;1,0;False;True;False;1,06699991226;True;0,990999937057
CEN2000w;experiment;2017-01-27-09-09-23;8,0;17,0;1000;1,0;3,0;0,0;2,0;column;1,0;False;True;False;1,10000014305;True;1,27099990845
CEN2000w;experiment;2017-01-27-09-09-23;8,0;18,0;1000;0,0;1,0;3,0;2,0;column;0,0;False;False;False;2,03300023079;True;0,863000154495
CEN2000w;experiment;2017-01-27-09-09-23;8,0;19,0;1000;3,0;0,0;1,0;2,0;row;1,0;True;True;True;1,26699995995;True;1,09599995613
CEN2000w;experiment;2017-01-27-09-09-23;8,0;20,0;1000;2,0;0,0;3,0;1,0;column;1,0;True;False;True;1,09999990463;True;0,930000066757
CEN2000w;experiment;2017-01-27-09-09-23;8,0;21,0;1000;2,0;1,0;0,0;3,0;column;0,0;True;True;True;1,86400008202;True;1,12699985504
CEN2000w;experiment;2017-01-27-09-09-23;8,0;22,0;1000;3,0;1,0;2,0;0,0;row;0,0;True;True;True;1,56599998474;True;0,592000007629
CEN2000w;experiment;2017-01-27-09-09-23;8,0;23,0;1000;3,0;2,0;0,0;1,0;row;0,0;False;False;False;2,56699991226;True;1,19999980927
CEN2000w;experiment;2017-01-27-09-09-23;8,0;24,0;1000;1,0;0,0;3,0;2,0;column;1,0;True;True;True;1,09899997711;True;1,49399995804
CEN2000w;experiment;2017-01-27-09-09-23;8,0;25,0;1000;0,0;1,0;3,0;2,0;row;0,0;True;True;True;1,90000009537;True;1,36100006104
CEN2000w;experiment;2017-01-27-09-09-23;8,0;26,0;1000;0,0;3,0;2,0;1,0;column;0,0;False;True;False;1,36800003052;True;1,43000006676
CEN2000w;experiment;2017-01-27-09-09-23;8,0;27,0;1000;0,0;2,0;1,0;3,0;row;1,0;True;False;True;1,93300008774;True;1,40299987793
CEN2000w;experiment;2017-01-27-09-09-23;8,0;28,0;1000;2,0;3,0;1,0;0,0;column;0,0;True;True;True;1,56699991226;True;1,49300003052
CEN2000w;experiment;2017-01-27-09-09-23;8,0;29,0;1000;3,0;2,0;0,0;1,0;column;0,0;True;True;True;1,73500013351;True;1,26600003242
CEN2000w;experiment;2017-01-27-09-09-23;8,0;30,0;1000;1,0;3,0;0,0;2,0;column;0,0;True;True;True;0,966000080109;True;0,52799987793
CEN2000w;experiment;2017-01-27-09-09-23;8,0;31,0;1000;1,0;0,0;2,0;3,0;column;0,0;False;True;True;0,932999849319;False;1,33800005913
CEN2000w;experiment;2017-01-27-09-09-23;8,0;32,0;1000;2,0;3,0;0,0;1,0;row;0,0;True;True;True;2,59999990463;True;0,867999792099
CEN2000w;experiment;2017-01-27-09-09-23;8,0;33,0;1000;2,0;1,0;3,0;0,0;row;0,0;True;True;True;1,5;True;1,09400010109
CEN2000w;experiment;2017-01-27-09-09-23;8,0;34,0;1000;1,0;0,0;3,0;2,0;row;0,0;False;True;False;1,60000014305;True;0,927999973297
CEN2000w;experiment;2017-01-27-09-09-23;8,0;35,0;1000;1,0;0,0;2,0;3,0;row;1,0;False;True;False;2,53299999237;True;0,727999925613
CEN2000w;experiment;2017-01-27-09-09-23;8,0;36,0;1000;0,0;1,0;2,0;3,0;row;0,0;True;True;True;1,56699991226;True;0,658999919891
CEN2000w;experiment;2017-01-27-09-09-23;8,0;37,0;1000;1,0;2,0;0,0;3,0;column;0,0;False;True;True;1,632999897;False;1,26099991798
CEN2000w;experiment;2017-01-27-09-09-23;8,0;38,0;1000;2,0;1,0;3,0;0,0;row;0,0;False;False;False;1,30000019073;True;1,06299996376
CEN2000w;experiment;2017-01-27-09-09-23;8,0;39,0;1000;0,0;2,0;1,0;3,0;column;0,0;True;False;True;1,19900012016;True;1,23000001907
CEN2000w;experiment;2017-01-27-09-09-23;8,0;40,0;1000;2,0;3,0;0,0;1,0;column;0,0;True;False;True;1,2990000248;True;0,568000078201
CEN2000w;experiment;2017-01-27-09-09-23;8,0;41,0;1000;0,0;1,0;3,0;2,0;row;1,0;False;True;False;1,16700005531;True;1,09200000763
CEN2000w;experiment;2017-01-27-09-09-23;8,0;42,0;1000;0,0;1,0;2,0;3,0;row;0,0;False;False;False;1,66599988937;True;0,695999860764
CEN2000w;experiment;2017-01-27-09-09-23;8,0;43,0;1000;3,0;2,0;0,0;1,0;row;0,0;True;True;True;1,29999995232;True;0,802000045776
CEN2000w;experiment;2017-01-27-09-09-23;8,0;44,0;1000;1,0;0,0;2,0;3,0;column;0,0;True;False;True;1,73300004005;True;0,901999950409
CEN2000w;experiment;2017-01-27-09-09-23;8,0;45,0;1000;1,0;3,0;0,0;2,0;column;0,0;False;True;False;1,26699995995;True;1,23000001907
CEN2000w;experiment;2017-01-27-09-09-23;8,0;46,0;1000;2,0;3,0;1,0;0,0;row;1,0;False;True;False;1,86699986458;True;0,961999893188
CEN2000w;experiment;2017-01-27-09-09-23;8,0;47,0;1000;2,0;3,0;1,0;0,0;column;1,0;False;True;False;0,967000007629;True;1,29499983788
CEN2000w;experiment;2017-01-27-09-09-23;8,0;48,0;1000;3,0;2,0;1,0;0,0;column;0,0;True;True;True;3,33399987221;True;1,26900005341
CEN2000w;experiment;2017-01-27-09-09-23;9,0;1,0;100;3,0;0,0;2,0;1,0;row;0,0;False;True;False;1,632999897;True;1,08100008965
CEN2000w;experiment;2017-01-27-09-09-23;9,0;2,0;100;2,0;1,0;3,0;0,0;row;0,0;False;False;False;1,73300004005;True;0,661000013351
CEN2000w;experiment;2017-01-27-09-09-23;9,0;3,0;100;2,0;1,0;3,0;0,0;column;1,0;False;True;False;1,33399987221;True;0,5640001297
CEN2000w;experiment;2017-01-27-09-09-23;9,0;4,0;100;3,0;1,0;2,0;0,0;row;1,0;False;True;False;1,53400015831;True;0,594999790192
CEN2000w;experiment;2017-01-27-09-09-23;9,0;5,0;100;0,0;1,0;3,0;2,0;column;0,0;False;True;False;1,73500013351;True;1,50300002098
CEN2000w;experiment;2017-01-27-09-09-23;9,0;6,0;100;1,0;2,0;0,0;3,0;column;0,0;True;True;True;0,934000015259;True;1,49400019646
CEN2000w;experiment;2017-01-27-09-09-23;9,0;7,0;100;2,0;3,0;0,0;1,0;row;1,0;True;True;True;1,36599993706;True;0,52999997139
CEN2000w;experiment;2017-01-27-09-09-23;9,0;8,0;100;3,0;1,0;0,0;2,0;column;0,0;False;False;False;1,10000014305;True;0,726999998093
CEN2000w;experiment;2017-01-27-09-09-23;9,0;9,0;100;3,0;2,0;1,0;0,0;column;1,0;True;True;False;1,59799981117;False;1,4279999733
CEN2000w;experiment;2017-01-27-09-09-23;9,0;10,0;100;2,0;3,0;0,0;1,0;row;0,0;True;True;True;1,16599988937;True;1,22800016403
CEN2000w;experiment;2017-01-27-09-09-23;9,0;11,0;100;1,0;2,0;0,0;3,0;column;0,0;False;False;False;1,26600003242;True;1,0680000782
CEN2000w;experiment;2017-01-27-09-09-23;9,0;12,0;100;1,0;2,0;0,0;3,0;row;0,0;False;False;False;1,26600003242;True;0,664000034332
CEN2000w;experiment;2017-01-27-09-09-23;9,0;13,0;100;1,0;0,0;2,0;3,0;column;0,0;True;False;True;1,06600022316;True;1,33899998665
CEN2000w;experiment;2017-01-27-09-09-23;9,0;14,0;100;3,0;2,0;1,0;0,0;column;1,0;False;False;True;1,29999995232;False;1,06100010872
CEN2000w;experiment;2017-01-27-09-09-23;9,0;15,0;100;3,0;1,0;0,0;2,0;row;1,0;True;True;True;1,03299999237;True;1,02899980545
CEN2000w;experiment;2017-01-27-09-09-23;9,0;16,0;100;1,0;0,0;3,0;2,0;column;1,0;True;True;True;1,56699991226;True;0,793999910355
CEN2000w;experiment;2017-01-27-09-09-23;9,0;17,0;100;3,0;2,0;0,0;1,0;column;1,0;False;True;False;1,20000004768;True;1,10299992561
CEN2000w;experiment;2017-01-27-09-09-23;9,0;18,0;100;1,0;2,0;3,0;0,0;column;1,0;False;True;False;1,46600008011;True;0,661000013351
CEN2000w;experiment;2017-01-27-09-09-23;9,0;19,0;100;1,0;2,0;0,0;3,0;row;0,0;True;False;True;1,46700000763;True;0,730000019073
CEN2000w;experiment;2017-01-27-09-09-23;9,0;20,0;100;3,0;0,0;1,0;2,0;column;0,0;False;False;False;1,73099994659;True;0,696000099182
CEN2000w;experiment;2017-01-27-09-09-23;9,0;21,0;100;0,0;1,0;3,0;2,0;row;1,0;True;True;True;1,99899983406;True;1,46100020409
CEN2000w;experiment;2017-01-27-09-09-23;9,0;22,0;100;1,0;0,0;3,0;2,0;row;1,0;True;True;True;1,59999990463;True;1,0039999485
CEN2000w;experiment;2017-01-27-09-09-23;9,0;23,0;100;0,0;3,0;2,0;1,0;column;0,0;True;True;True;1,367000103;True;0,993999958038
CEN2000w;experiment;2017-01-27-09-09-23;9,0;24,0;100;0,0;2,0;3,0;1,0;row;0,0;False;True;False;1,33300018311;True;1,42899990082
CEN2000w;experiment;2017-01-27-09-09-23;9,0;25,0;100;2,0;0,0;3,0;1,0;column;0,0;False;False;False;0,930999994278;True;0,528000116348
CEN2000w;experiment;2017-01-27-09-09-23;9,0;26,0;100;2,0;0,0;1,0;3,0;row;0,0;True;False;True;1,10000014305;True;0,52999997139
CEN2000w;experiment;2017-01-27-09-09-23;9,0;27,0;100;3,0;2,0;1,0;0,0;row;1,0;False;True;False;1,33299994469;True;1,13599991798
CEN2000w;experiment;2017-01-27-09-09-23;9,0;28,0;100;3,0;0,0;2,0;1,0;row;1,0;False;True;False;1,16700005531;True;1,06200003624
CEN2000w;experiment;2017-01-27-09-09-23;9,0;29,0;100;2,0;0,0;3,0;1,0;row;1,0;False;False;False;1,36599993706;True;1,19799995422
CEN2000w;experiment;2017-01-27-09-09-23;9,0;30,0;100;1,0;2,0;0,0;3,0;column;1,0;False;False;False;1,53299999237;True;1,03299999237
CEN2000w;experiment;2017-01-27-09-09-23;9,0;31,0;100;1,0;3,0;0,0;2,0;column;0,0;False;False;False;1,06599998474;True;1,52500009537
CEN2000w;experiment;2017-01-27-09-09-23;9,0;32,0;100;1,0;2,0;3,0;0,0;row;0,0;False;True;False;1,33399987221;True;1,02800011635
CEN2000w;experiment;2017-01-27-09-09-23;9,0;33,0;100;3,0;1,0;0,0;2,0;column;0,0;True;True;True;1,16600012779;True;1,19599986076
CEN2000w;experiment;2017-01-27-09-09-23;9,0;34,0;100;3,0;2,0;1,0;0,0;row;0,0;True;False;True;2,73300004005;True;1,4960000515
CEN2000w;experiment;2017-01-27-09-09-23;9,0;35,0;100;1,0;2,0;3,0;0,0;column;1,0;True;True;True;1,19999980927;True;1,19099998474
CEN2000w;experiment;2017-01-27-09-09-23;9,0;36,0;100;0,0;3,0;1,0;2,0;column;0,0;True;True;True;1,36599993706;True;0,628000020981
CEN2000w;experiment;2017-01-27-09-09-23;9,0;37,0;100;2,0;3,0;0,0;1,0;column;0,0;True;False;False;1,29999995232;False;1,22900009155
CEN2000w;experiment;2017-01-27-09-09-23;9,0;38,0;100;0,0;3,0;2,0;1,0;row;0,0;True;True;True;1,19999980927;True;0,528000116348
CEN2000w;experiment;2017-01-27-09-09-23;9,0;39,0;100;1,0;0,0;3,0;2,0;row;0,0;True;True;True;1,06599998474;True;1,26900005341
CEN2000w;experiment;2017-01-27-09-09-23;9,0;40,0;100;1,0;0,0;2,0;3,0;row;0,0;True;False;True;1,36699986458;True;0,694000005722
CEN2000w;experiment;2017-01-27-09-09-23;9,0;41,0;100;3,0;0,0;1,0;2,0;row;1,0;False;False;False;1,13300013542;True;1,16100001335
CEN2000w;experiment;2017-01-27-09-09-23;9,0;42,0;100;2,0;0,0;3,0;1,0;row;1,0;True;True;True;1,53399991989;True;0,702000141144
CEN2000w;experiment;2017-01-27-09-09-23;9,0;43,0;100;0,0;2,0;1,0;3,0;row;1,0;True;False;True;2,29999995232;True;1,09799981117
CEN2000w;experiment;2017-01-27-09-09-23;9,0;44,0;100;3,0;1,0;2,0;0,0;column;0,0;True;False;True;2,06599998474;True;0,62700009346
CEN2000w;experiment;2017-01-27-09-09-23;9,0;45,0;100;2,0;1,0;3,0;0,0;row;1,0;False;False;False;2,43300008774;True;1,02999997139
CEN2000w;experiment;2017-01-27-09-09-23;9,0;46,0;100;0,0;1,0;2,0;3,0;row;1,0;False;False;False;1,23399996758;True;0,733000040054
CEN2000w;experiment;2017-01-27-09-09-23;9,0;47,0;100;1,0;3,0;0,0;2,0;row;0,0;True;True;True;0,963999986649;True;1,49300003052
CEN2000w;experiment;2017-01-27-09-09-23;9,0;48,0;100;1,0;2,0;3,0;0,0;row;0,0;True;False;True;1,43400001526;True;1,36600017548
CEN2000w;experiment;2017-01-27-09-09-23;10,0;1,0;-100;1,0;3,0;2,0;0,0;row;1,0;True;False;True;1,28299999237;True;1,23599982262
CEN2000w;experiment;2017-01-27-09-09-23;10,0;2,0;-100;1,0;3,0;2,0;0,0;row;0,0;False;False;False;1,5490000248;True;0,62700009346
CEN2000w;experiment;2017-01-27-09-09-23;10,0;3,0;-100;0,0;3,0;1,0;2,0;column;1,0;False;False;False;1,75;True;0,796000003815
CEN2000w;experiment;2017-01-27-09-09-23;10,0;4,0;-100;2,0;0,0;3,0;1,0;row;1,0;True;False;True;1,18299984932;True;1,16100001335
CEN2000w;experiment;2017-01-27-09-09-23;10,0;5,0;-100;0,0;2,0;1,0;3,0;row;1,0;False;False;False;1,117000103;True;0,526999950409
CEN2000w;experiment;2017-01-27-09-09-23;10,0;6,0;-100;1,0;2,0;0,0;3,0;column;1,0;False;False;False;1,51699995995;True;0,532999992371
CEN2000w;experiment;2017-01-27-09-09-23;10,0;7,0;-100;2,0;3,0;1,0;0,0;row;1,0;True;True;True;1,28099989891;True;1,05900001526
CEN2000w;experiment;2017-01-27-09-09-23;10,0;8,0;-100;0,0;1,0;3,0;2,0;column;1,0;True;False;True;1,382999897;True;0,996000051498
CEN2000w;experiment;2017-01-27-09-09-23;10,0;9,0;-100;0,0;2,0;3,0;1,0;row;0,0;True;False;True;1,41700005531;True;1,10300016403
CEN2000w;experiment;2017-01-27-09-09-23;10,0;10,0;-100;2,0;1,0;0,0;3,0;column;1,0;True;True;True;1,21799993515;True;1,20299983025
CEN2000w;experiment;2017-01-27-09-09-23;10,0;11,0;-100;0,0;3,0;1,0;2,0;row;0,0;True;False;True;1,35000014305;True;1,02199983597
CEN2000w;experiment;2017-01-27-09-09-23;10,0;12,0;-100;2,0;0,0;1,0;3,0;column;1,0;False;False;False;1,34899997711;True;0,561000108719
CEN2000w;experiment;2017-01-27-09-09-23;10,0;13,0;-100;3,0;0,0;1,0;2,0;row;0,0;False;False;False;2,01699995995;True;1,49699997902
CEN2000w;experiment;2017-01-27-09-09-23;10,0;14,0;-100;3,0;0,0;2,0;1,0;row;1,0;False;True;False;1,74900007248;True;1,39499998093
CEN2000w;experiment;2017-01-27-09-09-23;10,0;15,0;-100;0,0;1,0;3,0;2,0;row;1,0;True;True;True;1,31599998474;True;1,26600003242
CEN2000w;experiment;2017-01-27-09-09-23;10,0;16,0;-100;3,0;2,0;0,0;1,0;column;0,0;False;True;False;1,55100011826;True;0,59299993515
CEN2000w;experiment;2017-01-27-09-09-23;10,0;17,0;-100;3,0;0,0;2,0;1,0;column;1,0;True;True;True;1,05100011826;True;0,535000085831
CEN2000w;experiment;2017-01-27-09-09-23;10,0;18,0;-100;2,0;0,0;1,0;3,0;row;1,0;True;False;True;1,78100013733;True;0,90299987793
CEN2000w;experiment;2017-01-27-09-09-23;10,0;19,0;-100;3,0;1,0;2,0;0,0;row;0,0;False;True;False;1,64999985695;True;1,42899990082
CEN2000w;experiment;2017-01-27-09-09-23;10,0;20,0;-100;1,0;3,0;2,0;0,0;column;0,0;True;True;True;1,21600008011;True;0,793999910355
CEN2000w;experiment;2017-01-27-09-09-23;10,0;21,0;-100;1,0;2,0;3,0;0,0;column;0,0;False;True;False;1,0490000248;True;0,697000026703
CEN2000w;experiment;2017-01-27-09-09-23;10,0;22,0;-100;3,0;0,0;2,0;1,0;row;0,0;True;True;False;2,15000009537;False;1,16400003433
CEN2000w;experiment;2017-01-27-09-09-23;10,0;23,0;-100;2,0;3,0;1,0;0,0;row;1,0;False;False;False;1,58400011063;True;1,47199988365
CEN2000w;experiment;2017-01-27-09-09-23;10,0;24,0;-100;2,0;0,0;1,0;3,0;row;1,0;False;False;False;1,38199996948;True;1,09999990463
CEN2000w;experiment;2017-01-27-09-09-23;10,0;25,0;-100;1,0;2,0;3,0;0,0;column;1,0;False;False;False;1,21599984169;True;1,19499993324
CEN2000w;experiment;2017-01-27-09-09-23;10,0;26,0;-100;1,0;2,0;3,0;0,0;column;0,0;True;False;True;0,78400015831;True;1,16300010681
CEN2000w;experiment;2017-01-27-09-09-23;10,0;27,0;-100;2,0;3,0;1,0;0,0;column;1,0;True;True;True;1,08299994469;True;0,793999910355
CEN2000w;experiment;2017-01-27-09-09-23;10,0;28,0;-100;3,0;2,0;0,0;1,0;column;1,0;True;False;True;1,78099989891;True;1,46399998665
CEN2000w;experiment;2017-01-27-09-09-23;10,0;29,0;-100;1,0;3,0;0,0;2,0;column;0,0;False;True;False;1,18400001526;True;0,832999944687
CEN2000w;experiment;2017-01-27-09-09-23;10,0;30,0;-100;0,0;2,0;3,0;1,0;row;1,0;True;True;True;1,5490000248;True;0,804000139236
CEN2000w;experiment;2017-01-27-09-09-23;10,0;31,0;-100;3,0;2,0;1,0;0,0;column;0,0;False;False;False;0,982999801636;True;1,43000006676
CEN2000w;experiment;2017-01-27-09-09-23;10,0;32,0;-100;3,0;0,0;2,0;1,0;column;1,0;False;True;False;1,61699986458;True;0,868999958038
CEN2000w;experiment;2017-01-27-09-09-23;10,0;33,0;-100;0,0;3,0;2,0;1,0;column;1,0;True;True;True;1,18300008774;True;1,2990000248
CEN2000w;experiment;2017-01-27-09-09-23;10,0;34,0;-100;3,0;1,0;0,0;2,0;row;0,0;True;True;True;1,78399991989;True;1,1289999485
CEN2000w;experiment;2017-01-27-09-09-23;10,0;35,0;-100;3,0;1,0;2,0;0,0;row;1,0;False;False;False;1,28299999237;True;0,831000089645
CEN2000w;experiment;2017-01-27-09-09-23;10,0;36,0;-100;3,0;2,0;0,0;1,0;column;1,0;False;False;True;1,21700000763;False;0,662000179291
CEN2000w;experiment;2017-01-27-09-09-23;10,0;37,0;-100;2,0;3,0;0,0;1,0;column;1,0;False;False;False;1,48300004005;True;1,16199994087
CEN2000w;experiment;2017-01-27-09-09-23;10,0;38,0;-100;3,0;1,0;2,0;0,0;column;1,0;False;False;False;1,48000001907;True;0,662000179291
CEN2000w;experiment;2017-01-27-09-09-23;10,0;39,0;-100;3,0;1,0;0,0;2,0;column;0,0;False;False;False;0,917000055313;True;1,02699995041
CEN2000w;experiment;2017-01-27-09-09-23;10,0;40,0;-100;1,0;3,0;0,0;2,0;row;1,0;False;True;False;1,41499996185;True;1,13400006294
CEN2000w;experiment;2017-01-27-09-09-23;10,0;41,0;-100;3,0;0,0;1,0;2,0;row;1,0;True;False;True;1,68400001526;True;1,36400008202
CEN2000w;experiment;2017-01-27-09-09-23;10,0;42,0;-100;0,0;1,0;3,0;2,0;column;0,0;True;False;True;1,51600003242;True;1,42999982834
CEN2000w;experiment;2017-01-27-09-09-23;10,0;43,0;-100;3,0;1,0;2,0;0,0;row;1,0;True;False;True;1,68400001526;True;1,39600014687
CEN2000w;experiment;2017-01-27-09-09-23;10,0;44,0;-100;1,0;0,0;3,0;2,0;row;1,0;True;False;True;1,41500020027;True;0,659999847412
CEN2000w;experiment;2017-01-27-09-09-23;10,0;45,0;-100;3,0;0,0;2,0;1,0;column;0,0;False;False;False;1,15100002289;True;1,32899999619
CEN2000w;experiment;2017-01-27-09-09-23;10,0;46,0;-100;0,0;1,0;2,0;3,0;column;0,0;False;True;False;0,916999816895;True;1,33299994469
CEN2000w;experiment;2017-01-27-09-09-23;10,0;47,0;-100;2,0;1,0;3,0;0,0;row;1,0;False;True;False;1,34899997711;True;0,529000043869
CEN2000w;experiment;2017-01-27-09-09-23;10,0;48,0;-100;0,0;3,0;1,0;2,0;column;1,0;True;True;True;1,08399987221;True;1,36099982262
CEN2000w;experiment;2017-01-27-09-09-23;11,0;1,0;100;1,0;0,0;3,0;2,0;column;0,0;True;False;True;1,23300004005;True;1,39499998093
CEN2000w;experiment;2017-01-27-09-09-23;11,0;2,0;100;3,0;1,0;2,0;0,0;column;1,0;False;True;False;1,20000004768;True;1,00600004196
CEN2000w;experiment;2017-01-27-09-09-23;11,0;3,0;100;2,0;0,0;1,0;3,0;row;0,0;False;False;False;1,53400015831;True;1,52800011635
CEN2000w;experiment;2017-01-27-09-09-23;11,0;4,0;100;0,0;1,0;3,0;2,0;row;1,0;False;False;False;1,33400011063;True;0,740000009537
CEN2000w;experiment;2017-01-27-09-09-23;11,0;5,0;100;1,0;2,0;3,0;0,0;column;0,0;False;True;False;1,16700005531;True;1,29499983788
CEN2000w;experiment;2017-01-27-09-09-23;11,0;6,0;100;0,0;2,0;1,0;3,0;row;0,0;False;True;False;1,39999985695;True;0,797000169754
CEN2000w;experiment;2017-01-27-09-09-23;11,0;7,0;100;0,0;3,0;1,0;2,0;row;1,0;True;True;False;1,06700015068;False;1,46899986267
CEN2000w;experiment;2017-01-27-09-09-23;11,0;8,0;100;3,0;0,0;2,0;1,0;column;0,0;False;False;False;1,20000004768;True;0,729000091553
CEN2000w;experiment;2017-01-27-09-09-23;11,0;9,0;100;2,0;3,0;1,0;0,0;column;1,0;True;True;False;1,83300018311;False;0,761999845505
CEN2000w;experiment;2017-01-27-09-09-23;11,0;10,0;100;3,0;1,0;0,0;2,0;column;1,0;False;True;False;1,73399996758;True;1,02800011635
CEN2000w;experiment;2017-01-27-09-09-23;11,0;11,0;100;3,0;2,0;0,0;1,0;row;0,0;True;False;True;1,09999990463;True;0,833999872208
CEN2000w;experiment;2017-01-27-09-09-23;11,0;12,0;100;1,0;3,0;0,0;2,0;row;0,0;False;False;False;1,66700005531;True;1,16300010681
CEN2000w;experiment;2017-01-27-09-09-23;11,0;13,0;100;1,0;3,0;2,0;0,0;row;0,0;False;False;False;1,33299994469;True;0,891000032425
CEN2000w;experiment;2017-01-27-09-09-23;11,0;14,0;100;2,0;1,0;0,0;3,0;column;0,0;True;False;True;1,43299984932;True;0,59500002861
CEN2000w;experiment;2017-01-27-09-09-23;11,0;15,0;100;1,0;2,0;3,0;0,0;column;0,0;True;True;True;1,26600003242;True;0,56299996376
CEN2000w;experiment;2017-01-27-09-09-23;11,0;16,0;100;0,0;1,0;3,0;2,0;row;0,0;False;False;False;1,60000014305;True;0,56500005722
CEN2000w;experiment;2017-01-27-09-09-23;11,0;17,0;100;0,0;1,0;2,0;3,0;column;0,0;True;False;True;0,865999937057;True;1,33700013161
CEN2000w;experiment;2017-01-27-09-09-23;11,0;18,0;100;3,0;2,0;0,0;1,0;row;1,0;True;True;True;1,63400006294;True;1,09500002861
CEN2000w;experiment;2017-01-27-09-09-23;11,0;19,0;100;2,0;1,0;0,0;3,0;column;0,0;False;False;False;1,09800004959;True;1,125
CEN2000w;experiment;2017-01-27-09-09-23;11,0;20,0;100;3,0;0,0;1,0;2,0;column;1,0;False;False;False;1,29999995232;True;0,534999847412
CEN2000w;experiment;2017-01-27-09-09-23;11,0;21,0;100;2,0;3,0;0,0;1,0;column;1,0;False;False;False;1,43299984932;True;1,00199985504
CEN2000w;experiment;2017-01-27-09-09-23;11,0;22,0;100;2,0;0,0;1,0;3,0;column;0,0;False;True;False;1,10100007057;True;1,29399991035
CEN2000w;experiment;2017-01-27-09-09-23;11,0;23,0;100;1,0;0,0;2,0;3,0;row;0,0;False;False;False;1,23399996758;True;1,40199995041
CEN2000w;experiment;2017-01-27-09-09-23;11,0;24,0;100;2,0;1,0;3,0;0,0;row;0,0;True;False;True;1,66700005531;True;1,03199982643
CEN2000w;experiment;2017-01-27-09-09-23;11,0;25,0;100;1,0;3,0;2,0;0,0;column;0,0;True;False;True;1,13199996948;True;1,4310002327
CEN2000w;experiment;2017-01-27-09-09-23;11,0;26,0;100;2,0;1,0;3,0;0,0;column;0,0;True;False;True;0,733999967575;True;1,39900016785
CEN2000w;experiment;2017-01-27-09-09-23;11,0;27,0;100;2,0;3,0;1,0;0,0;row;1,0;True;True;False;1,40000009537;False;0,904000043869
CEN2000w;experiment;2017-01-27-09-09-23;11,0;28,0;100;1,0;0,0;3,0;2,0;column;0,0;False;False;False;0,964999914169;True;0,833999872208
CEN2000w;experiment;2017-01-27-09-09-23;11,0;29,0;100;0,0;2,0;1,0;3,0;column;1,0;True;False;True;1,26600003242;True;1,46899986267
CEN2000w;experiment;2017-01-27-09-09-23;11,0;30,0;100;3,0;2,0;1,0;0,0;column;0,0;True;True;True;1,43200016022;True;1,39800000191
CEN2000w;experiment;2017-01-27-09-09-23;11,0;31,0;100;0,0;1,0;3,0;2,0;column;1,0;True;False;True;1,39999985695;True;0,799999952316
CEN2000w;experiment;2017-01-27-09-09-23;11,0;32,0;100;2,0;0,0;3,0;1,0;column;0,0;True;False;True;0,866999864578;True;1,02699995041
CEN2000w;experiment;2017-01-27-09-09-23;11,0;33,0;100;0,0;1,0;2,0;3,0;column;1,0;False;False;False;1,53399991989;True;1,46900010109
CEN2000w;experiment;2017-01-27-09-09-23;11,0;34,0;100;0,0;2,0;3,0;1,0;row;0,0;True;False;True;1,66599988937;True;1,29500007629
CEN2000w;experiment;2017-01-27-09-09-23;11,0;35,0;100;2,0;3,0;1,0;0,0;row;0,0;True;False;False;2,26600003242;False;0,930999994278
CEN2000w;experiment;2017-01-27-09-09-23;11,0;36,0;100;3,0;0,0;2,0;1,0;row;0,0;True;False;True;1,06700015068;True;0,731000185013
CEN2000w;experiment;2017-01-27-09-09-23;11,0;37,0;100;3,0;1,0;0,0;2,0;column;1,0;True;False;True;1,632999897;True;1,46799993515
CEN2000w;experiment;2017-01-27-09-09-23;11,0;38,0;100;2,0;1,0;0,0;3,0;row;1,0;False;True;False;1,53400015831;True;0,600000143051
CEN2000w;experiment;2017-01-27-09-09-23;11,0;39,0;100;1,0;2,0;3,0;0,0;row;1,0;True;True;True;1,20000004768;True;1,12599992752
CEN2000w;experiment;2017-01-27-09-09-23;11,0;40,0;100;0,0;3,0;1,0;2,0;row;0,0;False;True;False;1,26699995995;True;0,727999925613
CEN2000w;experiment;2017-01-27-09-09-23;11,0;41,0;100;3,0;0,0;2,0;1,0;column;1,0;True;False;False;1,03399991989;False;0,799999952316
CEN2000w;experiment;2017-01-27-09-09-23;11,0;42,0;100;0,0;3,0;2,0;1,0;row;1,0;False;True;True;1,43300008774;False;1,0640001297
CEN2000w;experiment;2017-01-27-09-09-23;11,0;43,0;100;2,0;0,0;1,0;3,0;column;0,0;True;True;False;1,367000103;False;1,49399995804
CEN2000w;experiment;2017-01-27-09-09-23;11,0;44,0;100;2,0;0,0;3,0;1,0;column;1,0;False;True;True;2,7650001049;False;1,39999985695
CEN2000w;experiment;2017-01-27-09-09-23;11,0;45,0;100;1,0;2,0;0,0;3,0;column;1,0;True;True;True;1,60000014305;True;1,02499985695
CEN2000w;experiment;2017-01-27-09-09-23;11,0;46,0;100;3,0;0,0;1,0;2,0;row;0,0;False;False;False;2,06700015068;True;1,50300002098
CEN2000w;experiment;2017-01-27-09-09-23;11,0;47,0;100;0,0;2,0;3,0;1,0;column;0,0;False;False;True;2,5;False;1,0680000782
CEN2000w;experiment;2017-01-27-09-09-23;11,0;48,0;100;3,0;1,0;0,0;2,0;row;1,0;False;False;False;1,36599993706;True;1,20299983025
CEN2000w;experiment;2017-01-27-09-09-23;12,0;1,0;1000;1,0;3,0;0,0;2,0;row;0,0;True;True;True;1,70000004768;True;1,23299980164
CEN2000w;experiment;2017-01-27-09-09-23;12,0;2,0;1000;2,0;0,0;1,0;3,0;row;1,0;False;False;False;1,33399987221;True;1,52399992943
CEN2000w;experiment;2017-01-27-09-09-23;12,0;3,0;1000;3,0;0,0;1,0;2,0;row;1,0;False;True;False;0,967000007629;True;0,960999965668
CEN2000w;experiment;2017-01-27-09-09-23;12,0;4,0;1000;0,0;3,0;1,0;2,0;column;0,0;False;True;False;1,30099987984;True;1,19799995422
CEN2000w;experiment;2017-01-27-09-09-23;12,0;5,0;1000;1,0;0,0;2,0;3,0;row;0,0;False;True;False;1,39999985695;True;0,693000078201
CEN2000w;experiment;2017-01-27-09-09-23;12,0;6,0;1000;1,0;3,0;2,0;0,0;row;1,0;True;True;True;1,20000004768;True;1,06200003624
CEN2000w;experiment;2017-01-27-09-09-23;12,0;7,0;1000;1,0;2,0;0,0;3,0;column;1,0;False;True;False;0,832999944687;True;0,735000133514
CEN2000w;experiment;2017-01-27-09-09-23;12,0;8,0;1000;3,0;2,0;1,0;0,0;row;1,0;False;True;False;1,19999980927;True;1,39700007439
CEN2000w;experiment;2017-01-27-09-09-23;12,0;9,0;1000;1,0;3,0;2,0;0,0;row;1,0;False;True;False;1,36599993706;True;1,43000006676
CEN2000w;experiment;2017-01-27-09-09-23;12,0;10,0;1000;3,0;1,0;0,0;2,0;row;0,0;True;True;True;1,86600017548;True;0,600000143051
CEN2000w;experiment;2017-01-27-09-09-23;12,0;11,0;1000;1,0;2,0;3,0;0,0;column;0,0;False;False;False;1,26699995995;True;0,904000043869
CEN2000w;experiment;2017-01-27-09-09-23;12,0;12,0;1000;2,0;0,0;1,0;3,0;column;0,0;False;False;True;1,73300004005;False;1,19400000572
CEN2000w;experiment;2017-01-27-09-09-23;12,0;13,0;1000;2,0;0,0;1,0;3,0;row;1,0;True;False;True;2,40000009537;True;1,19199991226
CEN2000w;experiment;2017-01-27-09-09-23;12,0;14,0;1000;2,0;3,0;0,0;1,0;row;0,0;False;False;False;1,46599984169;True;1,23099994659
CEN2000w;experiment;2017-01-27-09-09-23;12,0;15,0;1000;2,0;1,0;3,0;0,0;row;1,0;True;False;True;1,49900007248;True;1,39199995995
CEN2000w;experiment;2017-01-27-09-09-23;12,0;16,0;1000;3,0;2,0;1,0;0,0;row;1,0;True;False;True;0,966000080109;True;0,763000011444
CEN2000w;experiment;2017-01-27-09-09-23;12,0;17,0;1000;1,0;0,0;3,0;2,0;column;1,0;False;True;False;1,33299994469;True;1,17100000381
CEN2000w;experiment;2017-01-27-09-09-23;12,0;18,0;1000;1,0;0,0;3,0;2,0;column;0,0;True;False;True;1,33400011063;True;1,42499995232
CEN2000w;experiment;2017-01-27-09-09-23;12,0;19,0;1000;2,0;1,0;0,0;3,0;row;1,0;True;True;True;1,20000004768;True;0,835000038147
CEN2000w;experiment;2017-01-27-09-09-23;12,0;20,0;1000;0,0;1,0;2,0;3,0;column;0,0;True;False;True;1,16700005531;True;1,29500007629
CEN2000w;experiment;2017-01-27-09-09-23;12,0;21,0;1000;2,0;0,0;3,0;1,0;column;0,0;False;False;False;1,53200006485;True;1,00200009346
CEN2000w;experiment;2017-01-27-09-09-23;12,0;22,0;1000;1,0;2,0;3,0;0,0;row;1,0;True;False;True;2,43300008774;True;1,42900013924
CEN2000w;experiment;2017-01-27-09-09-23;12,0;23,0;1000;0,0;3,0;2,0;1,0;row;1,0;False;True;False;2,16600012779;True;1,36199998856
CEN2000w;experiment;2017-01-27-09-09-23;12,0;24,0;1000;3,0;1,0;2,0;0,0;column;0,0;True;True;True;1,867000103;True;0,700000047684
CEN2000w;experiment;2017-01-27-09-09-23;12,0;25,0;1000;2,0;3,0;1,0;0,0;column;0,0;False;False;True;1,49799990654;False;0,867999792099
CEN2000w;experiment;2017-01-27-09-09-23;12,0;26,0;1000;0,0;1,0;2,0;3,0;row;1,0;True;True;True;1,36599993706;True;0,932000160217
CEN2000w;experiment;2017-01-27-09-09-23;12,0;27,0;1000;1,0;2,0;0,0;3,0;row;1,0;True;True;True;0,934000015259;True;0,733000040054
CEN2000w;experiment;2017-01-27-09-09-23;12,0;28,0;1000;0,0;3,0;2,0;1,0;row;1,0;True;False;True;0,899999856949;True;0,802000045776
CEN2000w;experiment;2017-01-27-09-09-23;12,0;29,0;1000;2,0;1,0;0,0;3,0;column;1,0;False;False;False;1,23399996758;True;0,600000143051
CEN2000w;experiment;2017-01-27-09-09-23;12,0;30,0;1000;3,0;0,0;1,0;2,0;column;1,0;False;True;False;2,16700005531;True;1,47000002861
CEN2000w;experiment;2017-01-27-09-09-23;12,0;31,0;1000;2,0;1,0;3,0;0,0;column;0,0;True;True;True;1,06599998474;True;0,868000030518
CEN2000w;experiment;2017-01-27-09-09-23;12,0;32,0;1000;2,0;3,0;0,0;1,0;row;1,0;True;True;True;1,16799998283;True;1,03600001335
CEN2000w;experiment;2017-01-27-09-09-23;12,0;33,0;1000;0,0;2,0;3,0;1,0;row;1,0;False;False;False;1,632999897;True;1,12700009346
CEN2000w;experiment;2017-01-27-09-09-23;12,0;34,0;1000;3,0;2,0;0,0;1,0;column;1,0;True;False;True;1,46700000763;True;1,29299998283
CEN2000w;experiment;2017-01-27-09-09-23;12,0;35,0;1000;1,0;2,0;0,0;3,0;row;1,0;False;False;False;1,13400006294;True;1,09500002861
CEN2000w;experiment;2017-01-27-09-09-23;12,0;36,0;1000;3,0;0,0;1,0;2,0;row;0,0;True;True;True;1,29999995232;True;1,09899997711
CEN2000w;experiment;2017-01-27-09-09-23;12,0;37,0;1000;1,0;3,0;0,0;2,0;row;1,0;True;False;True;0,932999849319;True;1,16199994087
CEN2000w;experiment;2017-01-27-09-09-23;12,0;38,0;1000;0,0;2,0;1,0;3,0;column;1,0;True;True;True;1,26699995995;True;0,634000062943
CEN2000w;experiment;2017-01-27-09-09-23;12,0;39,0;1000;3,0;1,0;2,0;0,0;column;0,0;False;True;False;1,23300004005;True;1,44000005722
CEN2000w;experiment;2017-01-27-09-09-23;12,0;40,0;1000;1,0;3,0;2,0;0,0;column;0,0;False;False;True;1,53399991989;False;0,59600019455
CEN2000w;experiment;2017-01-27-09-09-23;12,0;41,0;1000;2,0;3,0;1,0;0,0;row;0,0;True;False;True;2,03299999237;True;1,32999992371
CEN2000w;experiment;2017-01-27-09-09-23;12,0;42,0;1000;1,0;3,0;0,0;2,0;row;1,0;False;True;False;1,132999897;True;1,20200014114
CEN2000w;experiment;2017-01-27-09-09-23;12,0;43,0;1000;0,0;2,0;1,0;3,0;row;0,0;True;True;True;1,26600003242;True;0,637000083923
CEN2000w;experiment;2017-01-27-09-09-23;12,0;44,0;1000;1,0;2,0;0,0;3,0;row;0,0;False;True;False;2,03100013733;True;0,52799987793
CEN2000w;experiment;2017-01-27-09-09-23;12,0;45,0;1000;0,0;3,0;1,0;2,0;row;0,0;False;False;False;1,56599998474;True;1,49499988556
CEN2000w;experiment;2017-01-27-09-09-23;12,0;46,0;1000;3,0;2,0;1,0;0,0;column;0,0;False;False;True;1,36599993706;False;1,10199999809
CEN2000w;experiment;2017-01-27-09-09-23;12,0;47,0;1000;1,0;2,0;3,0;0,0;column;1,0;True;True;True;1,23399996758;True;1,26799988747
CEN2000w;experiment;2017-01-27-09-09-23;12,0;48,0;1000;3,0;2,0;1,0;0,0;column;1,0;False;False;False;1,09899997711;True;1,40600013733
