Observer;Condition;SessionID;Block;Trial;COA;Color0;Color1;Color2;Color3;Target;Which;Match;FlipComplimentary;Response;RT;Correct;OnsetDelay
GHA1996m;game;2017-02-23-09-00-03;1,0;1,0;-100;1,0;3,0;0,0;2,0;row;1,0;False;True;False;2,41700005531;True;1,47399997711
GHA1996m;game;2017-02-23-09-00-03;1,0;2,0;-100;2,0;1,0;0,0;3,0;column;0,0;True;True;False;1,04999995232;False;1,25999999046
GHA1996m;game;2017-02-23-09-00-03;1,0;3,0;-100;3,0;0,0;1,0;2,0;column;0,0;True;True;True;1,0490000248;True;0,700999975204
GHA1996m;game;2017-02-23-09-00-03;1,0;4,0;-100;2,0;1,0;0,0;3,0;row;0,0;True;True;True;1,01600003242;True;0,836999893188
GHA1996m;game;2017-02-23-09-00-03;1,0;5,0;-100;2,0;0,0;3,0;1,0;row;0,0;False;False;False;0,881999969482;True;0,56299996376
GHA1996m;game;2017-02-23-09-00-03;1,0;6,0;-100;0,0;3,0;2,0;1,0;column;1,0;False;False;False;0,950000047684;True;0,631999969482
GHA1996m;game;2017-02-23-09-00-03;1,0;7,0;-100;3,0;1,0;2,0;0,0;column;1,0;False;True;False;0,884000062943;True;1,06999993324
GHA1996m;game;2017-02-23-09-00-03;1,0;8,0;-100;0,0;1,0;2,0;3,0;row;1,0;False;False;False;1,21700000763;True;1,09500002861
GHA1996m;game;2017-02-23-09-00-03;1,0;9,0;-100;3,0;0,0;2,0;1,0;column;0,0;False;False;False;1,382999897;True;0,836000204086
GHA1996m;game;2017-02-23-09-00-03;1,0;10,0;-100;3,0;2,0;0,0;1,0;row;1,0;True;True;False;1,01700019836;False;0,998999834061
GHA1996m;game;2017-02-23-09-00-03;1,0;11,0;-100;1,0;0,0;2,0;3,0;row;1,0;False;False;False;0,717000007629;True;1,30100011826
GHA1996m;game;2017-02-23-09-00-03;1,0;12,0;-100;1,0;2,0;0,0;3,0;column;1,0;False;True;False;1,18400001526;True;1,06700015068
GHA1996m;game;2017-02-23-09-00-03;1,0;13,0;-100;2,0;3,0;0,0;1,0;row;0,0;True;False;False;0,950999975204;False;1,23099994659
GHA1996m;game;2017-02-23-09-00-03;1,0;14,0;-100;1,0;0,0;2,0;3,0;column;0,0;False;False;False;1,05100011826;True;1,16899991035
GHA1996m;game;2017-02-23-09-00-03;1,0;15,0;-100;2,0;0,0;1,0;3,0;row;1,0;False;False;False;1,18400001526;True;1,0640001297
GHA1996m;game;2017-02-23-09-00-03;1,0;16,0;-100;0,0;3,0;1,0;2,0;row;0,0;True;False;False;1,01699995995;False;0,728999853134
GHA1996m;game;2017-02-23-09-00-03;1,0;17,0;-100;0,0;2,0;1,0;3,0;column;0,0;False;False;False;1,28199982643;True;1,40200018883
GHA1996m;game;2017-02-23-09-00-03;1,0;18,0;-100;3,0;2,0;0,0;1,0;column;1,0;True;True;True;0,848999977112;True;0,700999975204
GHA1996m;game;2017-02-23-09-00-03;1,0;19,0;-100;1,0;0,0;3,0;2,0;row;1,0;True;True;True;0,915999889374;True;1,16100001335
GHA1996m;game;2017-02-23-09-00-03;1,0;20,0;-100;0,0;1,0;3,0;2,0;row;1,0;True;False;False;0,983000040054;False;0,933000087738
GHA1996m;game;2017-02-23-09-00-03;1,0;21,0;-100;1,0;2,0;0,0;3,0;row;0,0;False;True;False;1,61599993706;True;1,37299990654
GHA1996m;game;2017-02-23-09-00-03;1,0;22,0;-100;3,0;2,0;0,0;1,0;column;0,0;False;False;True;1,71700000763;False;1,16100001335
GHA1996m;game;2017-02-23-09-00-03;1,0;23,0;-100;2,0;0,0;1,0;3,0;column;0,0;True;True;False;1,75099992752;False;1,19799995422
GHA1996m;game;2017-02-23-09-00-03;1,0;24,0;-100;1,0;2,0;0,0;3,0;row;1,0;False;True;False;1,44900012016;True;0,569999933243
GHA1996m;game;2017-02-23-09-00-03;1,0;25,0;-100;0,0;2,0;3,0;1,0;column;0,0;True;True;True;0,615999937057;True;0,601999998093
GHA1996m;game;2017-02-23-09-00-03;1,0;26,0;-100;0,0;3,0;2,0;1,0;column;0,0;False;True;False;0,850000143051;True;0,523999929428
GHA1996m;game;2017-02-23-09-00-03;1,0;27,0;-100;3,0;0,0;2,0;1,0;row;1,0;False;False;True;1,24900007248;False;1,13499999046
GHA1996m;game;2017-02-23-09-00-03;1,0;28,0;-100;0,0;2,0;3,0;1,0;row;0,0;True;False;False;1,24900007248;False;1,2990000248
GHA1996m;game;2017-02-23-09-00-03;1,0;29,0;-100;2,0;0,0;1,0;3,0;column;1,0;False;False;False;1,44799995422;True;1,25500011444
GHA1996m;game;2017-02-23-09-00-03;1,0;30,0;-100;2,0;3,0;0,0;1,0;row;1,0;True;True;True;1,01699995995;True;1,06500005722
GHA1996m;game;2017-02-23-09-00-03;1,0;31,0;-100;0,0;1,0;2,0;3,0;row;0,0;True;True;True;0,684000015259;True;1,2650001049
GHA1996m;game;2017-02-23-09-00-03;1,0;32,0;-100;3,0;2,0;1,0;0,0;row;0,0;False;False;True;1,31700015068;False;1,42199993134
GHA1996m;game;2017-02-23-09-00-03;1,0;33,0;-100;1,0;3,0;2,0;0,0;column;1,0;True;False;True;0,849999904633;True;0,536000013351
GHA1996m;game;2017-02-23-09-00-03;1,0;34,0;-100;0,0;1,0;2,0;3,0;row;0,0;False;True;False;0,950999975204;True;1,06599998474
GHA1996m;game;2017-02-23-09-00-03;1,0;35,0;-100;1,0;2,0;0,0;3,0;column;0,0;False;False;False;1,98199987411;True;1,49899983406
GHA1996m;game;2017-02-23-09-00-03;1,0;36,0;-100;2,0;3,0;0,0;1,0;column;0,0;False;False;False;1,84899997711;True;1,16599988937
GHA1996m;game;2017-02-23-09-00-03;1,0;37,0;-100;1,0;2,0;0,0;3,0;row;0,0;True;False;True;1,15100002289;True;1,29999995232
GHA1996m;game;2017-02-23-09-00-03;1,0;38,0;-100;0,0;2,0;1,0;3,0;column;0,0;True;False;True;2,18400001526;True;0,796000003815
GHA1996m;game;2017-02-23-09-00-03;1,0;39,0;-100;3,0;2,0;1,0;0,0;row;0,0;True;True;True;1,18200016022;True;1,49000000954
GHA1996m;game;2017-02-23-09-00-03;1,0;40,0;-100;0,0;2,0;3,0;1,0;column;0,0;False;True;True;1,01600003242;False;0,763999938965
GHA1996m;game;2017-02-23-09-00-03;1,0;41,0;-100;0,0;2,0;3,0;1,0;row;1,0;True;False;False;1,77999997139;False;1,09599995613
GHA1996m;game;2017-02-23-09-00-03;1,0;42,0;-100;2,0;3,0;0,0;1,0;row;0,0;False;True;False;1,84800004959;True;0,99799990654
GHA1996m;game;2017-02-23-09-00-03;1,0;43,0;-100;2,0;0,0;3,0;1,0;row;1,0;True;True;True;1,21700000763;True;1,05700016022
GHA1996m;game;2017-02-23-09-00-03;1,0;44,0;-100;0,0;1,0;2,0;3,0;column;0,0;False;False;False;2,15000009537;True;1,06900000572
GHA1996m;game;2017-02-23-09-00-03;1,0;45,0;-100;3,0;1,0;2,0;0,0;column;0,0;True;False;False;1,38399982452;False;0,763999938965
GHA1996m;game;2017-02-23-09-00-03;1,0;46,0;-100;0,0;2,0;1,0;3,0;row;1,0;True;True;True;1,74900007248;True;0,596999883652
GHA1996m;game;2017-02-23-09-00-03;1,0;47,0;-100;0,0;1,0;3,0;2,0;row;0,0;False;True;True;1,6179997921;False;1,5039999485
GHA1996m;game;2017-02-23-09-00-03;1,0;48,0;-100;1,0;3,0;0,0;2,0;row;0,0;True;False;True;1,21600008011;True;1,19799995422
GHA1996m;game;2017-02-23-09-00-03;2,0;1,0;100;3,0;2,0;1,0;0,0;column;0,0;True;True;True;1,19799995422;True;1,37300014496
GHA1996m;game;2017-02-23-09-00-03;2,0;2,0;100;3,0;0,0;1,0;2,0;column;0,0;True;True;True;0,532999992371;True;1,09300017357
GHA1996m;game;2017-02-23-09-00-03;2,0;3,0;100;0,0;1,0;2,0;3,0;column;0,0;True;True;False;2,33299994469;False;0,766000032425
GHA1996m;game;2017-02-23-09-00-03;2,0;4,0;100;1,0;3,0;0,0;2,0;row;1,0;False;True;True;1,60000014305;False;1,06700015068
GHA1996m;game;2017-02-23-09-00-03;2,0;5,0;100;3,0;2,0;0,0;1,0;column;1,0;False;True;False;1,36599993706;True;1,23799991608
GHA1996m;game;2017-02-23-09-00-03;2,0;6,0;100;0,0;1,0;3,0;2,0;column;1,0;True;False;True;1,13400006294;True;0,932999849319
GHA1996m;game;2017-02-23-09-00-03;2,0;7,0;100;2,0;0,0;1,0;3,0;row;0,0;False;False;False;2,36600017548;True;1,13800001144
GHA1996m;game;2017-02-23-09-00-03;2,0;8,0;100;2,0;1,0;0,0;3,0;row;1,0;True;False;True;1,46600008011;True;1,09100008011
GHA1996m;game;2017-02-23-09-00-03;2,0;9,0;100;0,0;1,0;2,0;3,0;column;1,0;True;True;True;2,16599988937;True;1,48900008202
GHA1996m;game;2017-02-23-09-00-03;2,0;10,0;100;2,0;3,0;0,0;1,0;row;1,0;False;False;False;1,99799990654;True;1,23399996758
GHA1996m;game;2017-02-23-09-00-03;2,0;11,0;100;0,0;2,0;1,0;3,0;column;1,0;True;True;True;1,59899997711;True;1,33700013161
GHA1996m;game;2017-02-23-09-00-03;2,0;12,0;100;2,0;3,0;0,0;1,0;row;1,0;True;False;True;1,26600003242;True;1,27200007439
GHA1996m;game;2017-02-23-09-00-03;2,0;13,0;100;2,0;1,0;0,0;3,0;column;0,0;False;True;False;1,79999995232;True;0,834000110626
GHA1996m;game;2017-02-23-09-00-03;2,0;14,0;100;1,0;2,0;3,0;0,0;row;1,0;False;True;False;1,70000004768;True;1,46599984169
GHA1996m;game;2017-02-23-09-00-03;2,0;15,0;100;0,0;2,0;1,0;3,0;column;0,0;True;True;True;2,7009999752;True;0,569000005722
GHA1996m;game;2017-02-23-09-00-03;2,0;16,0;100;0,0;3,0;1,0;2,0;row;0,0;True;False;True;1,56700015068;True;0,967000007629
GHA1996m;game;2017-02-23-09-00-03;2,0;17,0;100;1,0;2,0;0,0;3,0;column;1,0;False;False;False;1,63300013542;True;1,16499996185
GHA1996m;game;2017-02-23-09-00-03;2,0;18,0;100;3,0;1,0;0,0;2,0;column;1,0;False;True;False;1,66599988937;True;1,09999990463
GHA1996m;game;2017-02-23-09-00-03;2,0;19,0;100;3,0;2,0;0,0;1,0;row;0,0;True;False;True;1,23399996758;True;1,2990000248
GHA1996m;game;2017-02-23-09-00-03;2,0;20,0;100;1,0;0,0;3,0;2,0;row;1,0;True;False;True;1,30000019073;True;0,633000135422
GHA1996m;game;2017-02-23-09-00-03;2,0;21,0;100;2,0;1,0;3,0;0,0;column;0,0;False;True;False;2,09999990463;True;1,00499987602
GHA1996m;game;2017-02-23-09-00-03;2,0;22,0;100;2,0;3,0;1,0;0,0;row;1,0;True;True;True;2,96800017357;True;1,43000006676
GHA1996m;game;2017-02-23-09-00-03;2,0;23,0;100;1,0;2,0;3,0;0,0;column;0,0;True;True;True;1,96700000763;True;1,32899999619
GHA1996m;game;2017-02-23-09-00-03;2,0;24,0;100;0,0;3,0;1,0;2,0;row;0,0;False;True;False;1,76599979401;True;0,800999879837
GHA1996m;game;2017-02-23-09-00-03;2,0;25,0;100;2,0;0,0;3,0;1,0;row;0,0;True;True;True;1,66599988937;True;0,998000144958
GHA1996m;game;2017-02-23-09-00-03;2,0;26,0;100;3,0;1,0;0,0;2,0;column;0,0;True;False;True;1,73300004005;True;0,758999824524
GHA1996m;game;2017-02-23-09-00-03;2,0;27,0;100;2,0;0,0;3,0;1,0;column;1,0;True;False;True;1,53399991989;True;1,23000001907
GHA1996m;game;2017-02-23-09-00-03;2,0;28,0;100;0,0;2,0;3,0;1,0;column;0,0;True;False;True;1,56599998474;True;0,99799990654
GHA1996m;game;2017-02-23-09-00-03;2,0;29,0;100;0,0;2,0;1,0;3,0;column;1,0;False;False;False;1,46799993515;True;0,904000043869
GHA1996m;game;2017-02-23-09-00-03;2,0;30,0;100;2,0;0,0;1,0;3,0;column;0,0;False;False;False;1,5;True;0,967000007629
GHA1996m;game;2017-02-23-09-00-03;2,0;31,0;100;1,0;0,0;3,0;2,0;column;1,0;False;False;False;1,73199987411;True;1,03000020981
GHA1996m;game;2017-02-23-09-00-03;2,0;32,0;100;1,0;3,0;0,0;2,0;column;1,0;False;False;False;1,5;True;1,05999994278
GHA1996m;game;2017-02-23-09-00-03;2,0;33,0;100;1,0;0,0;2,0;3,0;column;1,0;False;False;False;1,90300011635;True;1,09099984169
GHA1996m;game;2017-02-23-09-00-03;2,0;34,0;100;1,0;2,0;0,0;3,0;row;1,0;False;False;False;1,90000009537;True;0,831000089645
GHA1996m;game;2017-02-23-09-00-03;2,0;35,0;100;0,0;3,0;2,0;1,0;column;1,0;True;True;True;1,367000103;True;0,766999959946
GHA1996m;game;2017-02-23-09-00-03;2,0;36,0;100;2,0;0,0;1,0;3,0;row;1,0;False;True;False;1,76600003242;True;1,4960000515
GHA1996m;game;2017-02-23-09-00-03;2,0;37,0;100;3,0;0,0;2,0;1,0;row;1,0;False;False;False;1,63400006294;True;0,529000043869
GHA1996m;game;2017-02-23-09-00-03;2,0;38,0;100;1,0;0,0;3,0;2,0;row;1,0;False;False;False;2,16499996185;True;1,4240000248
GHA1996m;game;2017-02-23-09-00-03;2,0;39,0;100;2,0;3,0;1,0;0,0;column;0,0;True;False;True;2,89900016785;True;0,888999938965
GHA1996m;game;2017-02-23-09-00-03;2,0;40,0;100;0,0;2,0;3,0;1,0;column;0,0;False;True;True;1,20000004768;False;1,19900012016
GHA1996m;game;2017-02-23-09-00-03;2,0;41,0;100;0,0;3,0;2,0;1,0;row;0,0;False;False;False;1,83299994469;True;0,567000150681
GHA1996m;game;2017-02-23-09-00-03;2,0;42,0;100;1,0;3,0;0,0;2,0;column;0,0;True;False;True;1,29799985886;True;0,900000095367
GHA1996m;game;2017-02-23-09-00-03;2,0;43,0;100;1,0;3,0;2,0;0,0;row;1,0;False;False;False;2,06599998474;True;1,50099992752
GHA1996m;game;2017-02-23-09-00-03;2,0;44,0;100;2,0;0,0;3,0;1,0;row;1,0;True;False;True;2,76600003242;True;0,930000066757
GHA1996m;game;2017-02-23-09-00-03;2,0;45,0;100;2,0;0,0;1,0;3,0;column;0,0;True;False;True;1,33299994469;True;1,40100002289
GHA1996m;game;2017-02-23-09-00-03;2,0;46,0;100;2,0;3,0;1,0;0,0;row;1,0;False;False;False;1,60000014305;True;0,698999881744
GHA1996m;game;2017-02-23-09-00-03;2,0;47,0;100;1,0;0,0;2,0;3,0;row;0,0;True;True;False;2,0;False;1,35899996758
GHA1996m;game;2017-02-23-09-00-03;2,0;48,0;100;2,0;1,0;3,0;0,0;column;1,0;False;True;False;1,36699986458;True;0,635999917984
GHA1996m;game;2017-02-23-09-00-03;3,0;1,0;1000;2,0;3,0;0,0;1,0;row;0,0;True;True;False;1,86599993706;False;0,533999919891
GHA1996m;game;2017-02-23-09-00-03;3,0;2,0;1000;1,0;2,0;3,0;0,0;column;1,0;False;True;True;1,20000004768;False;1,46700000763
GHA1996m;game;2017-02-23-09-00-03;3,0;3,0;1000;3,0;2,0;1,0;0,0;row;0,0;False;True;False;1,40100002289;True;0,762000083923
GHA1996m;game;2017-02-23-09-00-03;3,0;4,0;1000;0,0;1,0;2,0;3,0;row;0,0;True;False;True;1,80000019073;True;1,00300002098
GHA1996m;game;2017-02-23-09-00-03;3,0;5,0;1000;0,0;3,0;1,0;2,0;column;0,0;False;False;False;1,90000009537;True;0,896000146866
GHA1996m;game;2017-02-23-09-00-03;3,0;6,0;1000;1,0;0,0;2,0;3,0;row;1,0;True;True;True;1,43300008774;True;0,898000001907
GHA1996m;game;2017-02-23-09-00-03;3,0;7,0;1000;2,0;0,0;3,0;1,0;row;0,0;True;True;True;2,0;True;0,767999887466
GHA1996m;game;2017-02-23-09-00-03;3,0;8,0;1000;3,0;2,0;0,0;1,0;row;1,0;True;True;True;1,16699981689;True;1,50300002098
GHA1996m;game;2017-02-23-09-00-03;3,0;9,0;1000;3,0;0,0;1,0;2,0;column;1,0;True;False;True;1,46700000763;True;0,927999973297
GHA1996m;game;2017-02-23-09-00-03;3,0;10,0;1000;2,0;1,0;3,0;0,0;row;1,0;True;False;True;2,59800004959;True;0,697999954224
GHA1996m;game;2017-02-23-09-00-03;3,0;11,0;1000;1,0;2,0;0,0;3,0;column;1,0;False;False;False;1,79999995232;True;0,928999900818
GHA1996m;game;2017-02-23-09-00-03;3,0;12,0;1000;0,0;2,0;1,0;3,0;row;0,0;False;False;False;1,09999990463;True;1,33500003815
GHA1996m;game;2017-02-23-09-00-03;3,0;13,0;1000;2,0;3,0;0,0;1,0;column;1,0;True;True;False;1,10000014305;False;1,33100008965
GHA1996m;game;2017-02-23-09-00-03;3,0;14,0;1000;2,0;3,0;1,0;0,0;column;0,0;True;False;True;1,99699997902;True;1,23399996758
GHA1996m;game;2017-02-23-09-00-03;3,0;15,0;1000;0,0;1,0;3,0;2,0;row;1,0;False;False;True;1,73300004005;False;0,802000045776
GHA1996m;game;2017-02-23-09-00-03;3,0;16,0;1000;1,0;3,0;2,0;0,0;column;1,0;False;True;False;2,53299999237;True;0,795000076294
GHA1996m;game;2017-02-23-09-00-03;3,0;17,0;1000;2,0;1,0;0,0;3,0;column;0,0;True;True;True;1,53299999237;True;0,802999973297
GHA1996m;game;2017-02-23-09-00-03;3,0;18,0;1000;2,0;3,0;1,0;0,0;column;1,0;False;False;False;2,16799998283;True;0,899999856949
GHA1996m;game;2017-02-23-09-00-03;3,0;19,0;1000;2,0;0,0;3,0;1,0;column;1,0;False;True;False;1,83299994469;True;0,928999900818
GHA1996m;game;2017-02-23-09-00-03;3,0;20,0;1000;1,0;3,0;2,0;0,0;column;0,0;False;True;False;1,86599993706;True;1,16300010681
GHA1996m;game;2017-02-23-09-00-03;3,0;21,0;1000;3,0;1,0;0,0;2,0;column;1,0;False;False;False;1,86800003052;True;1,00200009346
GHA1996m;game;2017-02-23-09-00-03;3,0;22,0;1000;0,0;3,0;2,0;1,0;row;1,0;False;False;False;1,00100016594;True;0,630000114441
GHA1996m;game;2017-02-23-09-00-03;3,0;23,0;1000;3,0;2,0;0,0;1,0;column;1,0;True;True;False;2,06599998474;False;0,563999891281
GHA1996m;game;2017-02-23-09-00-03;3,0;24,0;1000;1,0;3,0;0,0;2,0;column;0,0;False;True;False;1,23399996758;True;0,732000112534
GHA1996m;game;2017-02-23-09-00-03;3,0;25,0;1000;2,0;0,0;3,0;1,0;row;1,0;True;True;False;1,53299999237;False;1,19599986076
GHA1996m;game;2017-02-23-09-00-03;3,0;26,0;1000;1,0;3,0;0,0;2,0;column;0,0;True;False;True;1,69899988174;True;1,132999897
GHA1996m;game;2017-02-23-09-00-03;3,0;27,0;1000;2,0;1,0;0,0;3,0;column;1,0;True;True;False;1,96700000763;False;1,26399993896
GHA1996m;game;2017-02-23-09-00-03;3,0;28,0;1000;1,0;3,0;0,0;2,0;row;1,0;False;False;False;2,367000103;True;0,664999961853
GHA1996m;game;2017-02-23-09-00-03;3,0;29,0;1000;0,0;3,0;1,0;2,0;column;1,0;True;True;True;1,63399982452;True;1,2619998455
GHA1996m;game;2017-02-23-09-00-03;3,0;30,0;1000;3,0;1,0;2,0;0,0;row;1,0;True;False;False;2,09999990463;False;1,42699980736
GHA1996m;game;2017-02-23-09-00-03;3,0;31,0;1000;2,0;0,0;1,0;3,0;row;0,0;False;True;False;1,90000009537;True;0,55999994278
GHA1996m;game;2017-02-23-09-00-03;3,0;32,0;1000;1,0;0,0;3,0;2,0;row;1,0;True;False;False;1,79899978638;False;1,33400011063
GHA1996m;game;2017-02-23-09-00-03;3,0;33,0;1000;1,0;0,0;2,0;3,0;column;0,0;True;False;True;1,39899992943;True;1,03299999237
GHA1996m;game;2017-02-23-09-00-03;3,0;34,0;1000;2,0;0,0;1,0;3,0;column;0,0;True;False;True;0,866999864578;True;0,969000101089
GHA1996m;game;2017-02-23-09-00-03;3,0;35,0;1000;2,0;0,0;1,0;3,0;column;1,0;True;True;True;2,2650001049;True;1,06599998474
GHA1996m;game;2017-02-23-09-00-03;3,0;36,0;1000;1,0;2,0;3,0;0,0;row;1,0;True;True;False;1,76600003242;False;1,00499987602
GHA1996m;game;2017-02-23-09-00-03;3,0;37,0;1000;3,0;1,0;0,0;2,0;row;1,0;False;False;True;1,80100011826;False;0,62900018692
GHA1996m;game;2017-02-23-09-00-03;3,0;38,0;1000;1,0;2,0;3,0;0,0;column;1,0;True;True;True;1,36600017548;True;0,561999797821
GHA1996m;game;2017-02-23-09-00-03;3,0;39,0;1000;1,0;3,0;2,0;0,0;column;0,0;True;True;True;2,73300004005;True;0,827999830246
GHA1996m;game;2017-02-23-09-00-03;3,0;40,0;1000;0,0;1,0;3,0;2,0;row;1,0;True;True;False;1,83400011063;False;1,09599995613
GHA1996m;game;2017-02-23-09-00-03;3,0;41,0;1000;3,0;0,0;1,0;2,0;column;0,0;False;True;False;2,99900007248;True;1,49799990654
GHA1996m;game;2017-02-23-09-00-03;3,0;42,0;1000;1,0;0,0;3,0;2,0;row;0,0;False;False;False;3,53400015831;True;0,834000110626
GHA1996m;game;2017-02-23-09-00-03;3,0;43,0;1000;0,0;3,0;1,0;2,0;row;0,0;True;False;False;2,02999997139;False;0,864000082016
GHA1996m;game;2017-02-23-09-00-03;3,0;44,0;1000;1,0;3,0;0,0;2,0;row;0,0;True;False;True;4,09899997711;True;0,733999967575
GHA1996m;game;2017-02-23-09-00-03;3,0;45,0;1000;2,0;1,0;0,0;3,0;row;1,0;True;False;False;2,50099992752;False;1,03699994087
GHA1996m;game;2017-02-23-09-00-03;3,0;46,0;1000;1,0;0,0;3,0;2,0;row;0,0;True;False;False;2,23300004005;False;0,764999866486
GHA1996m;game;2017-02-23-09-00-03;3,0;47,0;1000;1,0;2,0;0,0;3,0;row;0,0;False;True;False;2,69900012016;True;1,30000019073
GHA1996m;game;2017-02-23-09-00-03;3,0;48,0;1000;1,0;3,0;2,0;0,0;row;0,0;False;True;False;1,16700005531;True;1,23600006104
GHA1996m;game;2017-02-23-09-00-03;4,0;1,0;100;1,0;3,0;2,0;0,0;row;0,0;False;False;False;1,867000103;True;1,21099996567
GHA1996m;game;2017-02-23-09-00-03;4,0;2,0;100;3,0;0,0;1,0;2,0;row;0,0;True;True;True;1,96499991417;True;1,49399995804
GHA1996m;game;2017-02-23-09-00-03;4,0;3,0;100;3,0;2,0;0,0;1,0;row;1,0;True;True;True;1,5;True;0,762000083923
GHA1996m;game;2017-02-23-09-00-03;4,0;4,0;100;2,0;3,0;1,0;0,0;row;0,0;False;False;False;2,06699991226;True;0,669999837875
GHA1996m;game;2017-02-23-09-00-03;4,0;5,0;100;2,0;1,0;0,0;3,0;row;1,0;False;False;False;2,0;True;0,733999967575
GHA1996m;game;2017-02-23-09-00-03;4,0;6,0;100;1,0;0,0;2,0;3,0;column;0,0;False;False;False;3,13199996948;True;1,0039999485
GHA1996m;game;2017-02-23-09-00-03;4,0;7,0;100;0,0;2,0;3,0;1,0;row;1,0;True;True;False;2,10100007057;False;0,860999822617
GHA1996m;game;2017-02-23-09-00-03;4,0;8,0;100;0,0;1,0;2,0;3,0;row;1,0;False;False;False;2,10000014305;True;0,792999982834
GHA1996m;game;2017-02-23-09-00-03;4,0;9,0;100;2,0;3,0;0,0;1,0;column;0,0;False;True;False;3,09999990463;True;1,16300010681
GHA1996m;game;2017-02-23-09-00-03;4,0;10,0;100;2,0;0,0;1,0;3,0;column;1,0;True;False;True;2,03400015831;True;0,895999908447
GHA1996m;game;2017-02-23-09-00-03;4,0;11,0;100;0,0;2,0;1,0;3,0;row;0,0;True;False;True;2,40000009537;True;0,701999902725
GHA1996m;game;2017-02-23-09-00-03;4,0;12,0;100;2,0;3,0;0,0;1,0;row;0,0;True;True;True;1,73300004005;True;0,700000047684
GHA1996m;game;2017-02-23-09-00-03;4,0;13,0;100;0,0;1,0;3,0;2,0;row;0,0;False;False;False;1,26600003242;True;1,43499994278
GHA1996m;game;2017-02-23-09-00-03;4,0;14,0;100;2,0;3,0;0,0;1,0;column;1,0;False;False;False;1,33400011063;True;1,10100007057
GHA1996m;game;2017-02-23-09-00-03;4,0;15,0;100;1,0;3,0;0,0;2,0;row;1,0;True;True;True;1,59999990463;True;0,700000047684
GHA1996m;game;2017-02-23-09-00-03;4,0;16,0;100;1,0;0,0;3,0;2,0;column;0,0;False;True;False;1,79999995232;True;1,32700014114
GHA1996m;game;2017-02-23-09-00-03;4,0;17,0;100;2,0;3,0;1,0;0,0;column;1,0;True;False;True;1,43400001526;True;0,731999874115
GHA1996m;game;2017-02-23-09-00-03;4,0;18,0;100;0,0;1,0;3,0;2,0;column;0,0;False;False;False;1,73399996758;True;0,760999917984
GHA1996m;game;2017-02-23-09-00-03;4,0;19,0;100;1,0;3,0;2,0;0,0;column;0,0;False;True;True;2,33299994469;False;1,26900005341
GHA1996m;game;2017-02-23-09-00-03;4,0;20,0;100;1,0;3,0;0,0;2,0;column;1,0;True;True;True;1,89800000191;True;1,33400011063
GHA1996m;game;2017-02-23-09-00-03;4,0;21,0;100;1,0;0,0;3,0;2,0;column;0,0;True;True;True;2,33500003815;True;1,45899987221
GHA1996m;game;2017-02-23-09-00-03;4,0;22,0;100;2,0;0,0;3,0;1,0;row;1,0;False;False;False;1,5;True;1,16199994087
GHA1996m;game;2017-02-23-09-00-03;4,0;23,0;100;1,0;2,0;0,0;3,0;column;0,0;False;True;False;1,63400006294;True;1,28999996185
GHA1996m;game;2017-02-23-09-00-03;4,0;24,0;100;3,0;0,0;2,0;1,0;row;0,0;True;False;True;2,09999990463;True;1,20000004768
GHA1996m;game;2017-02-23-09-00-03;4,0;25,0;100;3,0;0,0;1,0;2,0;row;1,0;False;True;False;3,13300013542;True;0,729000091553
GHA1996m;game;2017-02-23-09-00-03;4,0;26,0;100;3,0;0,0;1,0;2,0;column;1,0;False;False;False;1,93300008774;True;0,799999952316
GHA1996m;game;2017-02-23-09-00-03;4,0;27,0;100;3,0;2,0;0,0;1,0;row;1,0;False;True;False;1,90000009537;True;1,26699995995
GHA1996m;game;2017-02-23-09-00-03;4,0;28,0;100;1,0;0,0;2,0;3,0;column;1,0;True;False;True;1,33299994469;True;1,40000009537
GHA1996m;game;2017-02-23-09-00-03;4,0;29,0;100;3,0;0,0;2,0;1,0;column;0,0;True;True;False;1,56699991226;False;0,531999826431
GHA1996m;game;2017-02-23-09-00-03;4,0;30,0;100;2,0;1,0;0,0;3,0;row;0,0;False;False;False;1,53299999237;True;1,39700007439
GHA1996m;game;2017-02-23-09-00-03;4,0;31,0;100;1,0;3,0;2,0;0,0;row;1,0;True;True;True;1,63400006294;True;1,19799995422
GHA1996m;game;2017-02-23-09-00-03;4,0;32,0;100;2,0;0,0;1,0;3,0;column;1,0;False;False;False;2,06700015068;True;0,630000114441
GHA1996m;game;2017-02-23-09-00-03;4,0;33,0;100;2,0;1,0;3,0;0,0;column;0,0;True;True;False;1,46499991417;False;0,958999872208
GHA1996m;game;2017-02-23-09-00-03;4,0;34,0;100;2,0;0,0;1,0;3,0;row;0,0;True;True;False;1,69899988174;False;1,16499996185
GHA1996m;game;2017-02-23-09-00-03;4,0;35,0;100;0,0;3,0;2,0;1,0;row;0,0;True;True;False;1,46700000763;False;0,90499997139
GHA1996m;game;2017-02-23-09-00-03;4,0;36,0;100;1,0;2,0;3,0;0,0;column;1,0;True;False;True;2,03400015831;True;1,29800009727
GHA1996m;game;2017-02-23-09-00-03;4,0;37,0;100;3,0;1,0;0,0;2,0;row;1,0;False;False;False;1,43300008774;True;0,706999778748
GHA1996m;game;2017-02-23-09-00-03;4,0;38,0;100;1,0;3,0;0,0;2,0;row;0,0;True;False;True;1,96800017357;True;1,02799987793
GHA1996m;game;2017-02-23-09-00-03;4,0;39,0;100;3,0;1,0;0,0;2,0;row;1,0;True;True;False;1,73300004005;False;1,09800004959
GHA1996m;game;2017-02-23-09-00-03;4,0;40,0;100;1,0;0,0;3,0;2,0;row;0,0;True;True;False;1,43300008774;False;0,668999910355
GHA1996m;game;2017-02-23-09-00-03;4,0;41,0;100;3,0;1,0;2,0;0,0;row;0,0;True;False;True;2,0680000782;True;0,667000055313
GHA1996m;game;2017-02-23-09-00-03;4,0;42,0;100;1,0;2,0;0,0;3,0;column;0,0;True;False;True;2,19900012016;True;1,02699995041
GHA1996m;game;2017-02-23-09-00-03;4,0;43,0;100;1,0;2,0;0,0;3,0;column;1,0;True;True;True;1,36500000954;True;0,59500002861
GHA1996m;game;2017-02-23-09-00-03;4,0;44,0;100;1,0;0,0;2,0;3,0;row;0,0;False;False;False;2,16599988937;True;0,563999891281
GHA1996m;game;2017-02-23-09-00-03;4,0;45,0;100;2,0;0,0;3,0;1,0;column;1,0;False;True;False;1,96600008011;True;0,533999919891
GHA1996m;game;2017-02-23-09-00-03;4,0;46,0;100;1,0;2,0;3,0;0,0;row;1,0;True;False;True;1,29999995232;True;0,569000005722
GHA1996m;game;2017-02-23-09-00-03;4,0;47,0;100;0,0;1,0;2,0;3,0;column;0,0;False;True;False;2,39999985695;True;0,663000106812
GHA1996m;game;2017-02-23-09-00-03;4,0;48,0;100;3,0;2,0;0,0;1,0;column;1,0;True;True;True;1,56699991226;True;1,22900009155
GHA1996m;game;2017-02-23-09-00-03;5,0;1,0;1000;0,0;1,0;2,0;3,0;column;0,0;True;True;True;1,59999990463;True;1,00999999046
GHA1996m;game;2017-02-23-09-00-03;5,0;2,0;1000;0,0;2,0;3,0;1,0;row;1,0;True;True;True;1,26600003242;True;1,23699998856
GHA1996m;game;2017-02-23-09-00-03;5,0;3,0;1000;3,0;1,0;2,0;0,0;column;1,0;False;True;False;1,73300004005;True;1,03699994087
GHA1996m;game;2017-02-23-09-00-03;5,0;4,0;1000;0,0;2,0;3,0;1,0;row;0,0;True;False;True;1,03399991989;True;0,657999992371
GHA1996m;game;2017-02-23-09-00-03;5,0;5,0;1000;1,0;0,0;3,0;2,0;column;0,0;False;False;False;2,06700015068;True;0,766000032425
GHA1996m;game;2017-02-23-09-00-03;5,0;6,0;1000;2,0;1,0;3,0;0,0;column;0,0;False;False;False;3,10099983215;True;1,00099992752
GHA1996m;game;2017-02-23-09-00-03;5,0;7,0;1000;1,0;2,0;3,0;0,0;row;1,0;False;False;False;2,0;True;0,799999952316
GHA1996m;game;2017-02-23-09-00-03;5,0;8,0;1000;2,0;0,0;3,0;1,0;row;0,0;False;True;False;1,06599998474;True;0,697000026703
GHA1996m;game;2017-02-23-09-00-03;5,0;9,0;1000;3,0;0,0;1,0;2,0;row;1,0;True;True;False;1,89899992943;False;0,633000135422
GHA1996m;game;2017-02-23-09-00-03;5,0;10,0;1000;3,0;2,0;0,0;1,0;column;0,0;False;True;False;1,39999985695;True;1,46999979019
GHA1996m;game;2017-02-23-09-00-03;5,0;11,0;1000;3,0;1,0;0,0;2,0;row;0,0;False;False;True;1,43300008774;False;1,29600000381
GHA1996m;game;2017-02-23-09-00-03;5,0;12,0;1000;0,0;1,0;3,0;2,0;column;1,0;True;False;False;2,53299999237;False;1,46799993515
GHA1996m;game;2017-02-23-09-00-03;5,0;13,0;1000;0,0;3,0;1,0;2,0;row;1,0;False;True;True;2,96700000763;False;1,46200013161
GHA1996m;game;2017-02-23-09-00-03;5,0;14,0;1000;0,0;1,0;2,0;3,0;row;1,0;True;False;True;2,19800019264;True;1,4359998703
GHA1996m;game;2017-02-23-09-00-03;5,0;15,0;1000;2,0;1,0;3,0;0,0;row;0,0;True;False;True;0,967000007629;True;0,836999893188
GHA1996m;game;2017-02-23-09-00-03;5,0;16,0;1000;2,0;3,0;0,0;1,0;column;0,0;False;False;False;3,19899988174;True;0,663999795914
GHA1996m;game;2017-02-23-09-00-03;5,0;17,0;1000;0,0;2,0;3,0;1,0;column;1,0;True;False;True;2,90000009537;True;0,631999969482
GHA1996m;game;2017-02-23-09-00-03;5,0;18,0;1000;3,0;1,0;2,0;0,0;column;0,0;False;False;False;2,33299994469;True;0,835999965668
GHA1996m;game;2017-02-23-09-00-03;5,0;19,0;1000;1,0;2,0;0,0;3,0;column;0,0;False;False;False;3,99899983406;True;0,759000062943
GHA1996m;game;2017-02-23-09-00-03;5,0;20,0;1000;3,0;0,0;1,0;2,0;row;1,0;False;True;False;2,13400006294;True;1,33400011063
GHA1996m;game;2017-02-23-09-00-03;5,0;21,0;1000;2,0;3,0;0,0;1,0;column;1,0;False;True;False;1,26600003242;True;1,03299999237
GHA1996m;game;2017-02-23-09-00-03;5,0;22,0;1000;0,0;1,0;3,0;2,0;column;0,0;True;True;True;2,73300004005;True;1,35500001907
GHA1996m;game;2017-02-23-09-00-03;5,0;23,0;1000;2,0;1,0;0,0;3,0;column;1,0;False;False;False;2,16500020027;True;1,46700000763
GHA1996m;game;2017-02-23-09-00-03;5,0;24,0;1000;2,0;1,0;0,0;3,0;column;0,0;False;False;False;4,00400018692;True;0,924999952316
GHA1996m;game;2017-02-23-09-00-03;5,0;25,0;1000;0,0;2,0;1,0;3,0;column;0,0;False;True;False;2,40000009537;True;1,43499994278
GHA1996m;game;2017-02-23-09-00-03;5,0;26,0;1000;0,0;1,0;2,0;3,0;column;1,0;True;True;True;1,56599998474;True;1,492000103
GHA1996m;game;2017-02-23-09-00-03;5,0;27,0;1000;2,0;0,0;1,0;3,0;row;1,0;True;False;False;2,26699995995;False;0,623999834061
GHA1996m;game;2017-02-23-09-00-03;5,0;28,0;1000;1,0;2,0;3,0;0,0;row;0,0;True;True;True;1,5;True;1,43700003624
GHA1996m;game;2017-02-23-09-00-03;5,0;29,0;1000;1,0;0,0;3,0;2,0;row;1,0;False;True;False;2,03299999237;True;0,634000062943
GHA1996m;game;2017-02-23-09-00-03;5,0;30,0;1000;2,0;1,0;3,0;0,0;column;1,0;True;True;True;1,69800019264;True;1,13099980354
GHA1996m;game;2017-02-23-09-00-03;5,0;31,0;1000;1,0;0,0;2,0;3,0;column;0,0;False;False;False;1,76599979401;True;1,25800013542
GHA1996m;game;2017-02-23-09-00-03;5,0;32,0;1000;0,0;3,0;2,0;1,0;row;0,0;True;True;True;1,367000103;True;0,799999952316
GHA1996m;game;2017-02-23-09-00-03;5,0;33,0;1000;2,0;1,0;3,0;0,0;column;1,0;False;True;False;1,39900016785;True;0,561000108719
GHA1996m;game;2017-02-23-09-00-03;5,0;34,0;1000;3,0;2,0;0,0;1,0;column;1,0;False;True;False;1,39899992943;True;1,29800009727
GHA1996m;game;2017-02-23-09-00-03;5,0;35,0;1000;0,0;1,0;2,0;3,0;column;0,0;False;False;True;1,03299999237;False;0,828999996185
GHA1996m;game;2017-02-23-09-00-03;5,0;36,0;1000;1,0;0,0;2,0;3,0;column;1,0;True;True;True;2,632999897;True;1,0680000782
GHA1996m;game;2017-02-23-09-00-03;5,0;37,0;1000;3,0;2,0;1,0;0,0;row;1,0;True;True;True;2,13300013542;True;1,46099996567
GHA1996m;game;2017-02-23-09-00-03;5,0;38,0;1000;1,0;2,0;3,0;0,0;row;0,0;False;False;False;1,09999990463;True;1,36899995804
GHA1996m;game;2017-02-23-09-00-03;5,0;39,0;1000;0,0;3,0;1,0;2,0;row;0,0;False;True;False;0,967000007629;True;1,46700000763
GHA1996m;game;2017-02-23-09-00-03;5,0;40,0;1000;0,0;3,0;1,0;2,0;column;0,0;True;True;False;1,03299999237;False;1,19900012016
GHA1996m;game;2017-02-23-09-00-03;5,0;41,0;1000;0,0;1,0;3,0;2,0;column;1,0;False;True;False;1,49900007248;True;0,831000089645
GHA1996m;game;2017-02-23-09-00-03;5,0;42,0;1000;1,0;0,0;2,0;3,0;row;0,0;False;False;False;1,03299999237;True;1,0609998703
GHA1996m;game;2017-02-23-09-00-03;5,0;43,0;1000;0,0;3,0;2,0;1,0;column;0,0;True;False;True;1,56599998474;True;1,09599995613
GHA1996m;game;2017-02-23-09-00-03;5,0;44,0;1000;2,0;0,0;1,0;3,0;row;0,0;True;True;True;1,90000009537;True;1,29200005531
GHA1996m;game;2017-02-23-09-00-03;5,0;45,0;1000;1,0;0,0;2,0;3,0;row;0,0;True;True;True;0,967000007629;True;0,736000061035
GHA1996m;game;2017-02-23-09-00-03;5,0;46,0;1000;3,0;2,0;1,0;0,0;row;1,0;False;True;False;1,23300004005;True;1,5
GHA1996m;game;2017-02-23-09-00-03;5,0;47,0;1000;1,0;2,0;3,0;0,0;column;0,0;False;False;False;2,30100011826;True;0,963999986649
GHA1996m;game;2017-02-23-09-00-03;5,0;48,0;1000;2,0;0,0;1,0;3,0;column;0,0;False;False;False;1,53299999237;True;1,39800000191
GHA1996m;game;2017-02-23-09-00-03;6,0;1,0;-100;0,0;1,0;3,0;2,0;row;1,0;False;True;False;1,78399991989;True;1,33100008965
GHA1996m;game;2017-02-23-09-00-03;6,0;2,0;-100;2,0;3,0;1,0;0,0;column;1,0;False;True;False;2,25;True;0,904000043869
GHA1996m;game;2017-02-23-09-00-03;6,0;3,0;-100;2,0;1,0;0,0;3,0;row;0,0;False;False;False;1,84800004959;True;0,829999923706
GHA1996m;game;2017-02-23-09-00-03;6,0;4,0;-100;1,0;3,0;0,0;2,0;row;0,0;False;False;False;1,41600012779;True;1,33299994469
GHA1996m;game;2017-02-23-09-00-03;6,0;5,0;-100;2,0;1,0;0,0;3,0;column;0,0;False;False;False;1,74900007248;True;0,56200003624
GHA1996m;game;2017-02-23-09-00-03;6,0;6,0;-100;1,0;0,0;2,0;3,0;column;0,0;True;False;True;2,14800000191;True;0,604000091553
GHA1996m;game;2017-02-23-09-00-03;6,0;7,0;-100;1,0;0,0;3,0;2,0;row;0,0;False;False;False;2,64899992943;True;0,835000038147
GHA1996m;game;2017-02-23-09-00-03;6,0;8,0;-100;0,0;2,0;1,0;3,0;row;0,0;False;False;False;1,28299999237;True;1,12299990654
GHA1996m;game;2017-02-23-09-00-03;6,0;9,0;-100;2,0;1,0;3,0;0,0;row;1,0;True;False;True;3,41400003433;True;0,698000192642
GHA1996m;game;2017-02-23-09-00-03;6,0;10,0;-100;0,0;3,0;2,0;1,0;row;0,0;True;False;True;1,382999897;True;1,13300013542
GHA1996m;game;2017-02-23-09-00-03;6,0;11,0;-100;3,0;0,0;2,0;1,0;row;1,0;True;False;True;1,58299994469;True;0,870000123978
GHA1996m;game;2017-02-23-09-00-03;6,0;12,0;-100;3,0;1,0;0,0;2,0;column;0,0;True;False;True;1,84899997711;True;1,09999990463
GHA1996m;game;2017-02-23-09-00-03;6,0;13,0;-100;1,0;3,0;0,0;2,0;column;1,0;True;True;True;1,48399996758;True;1,09800004959
GHA1996m;game;2017-02-23-09-00-03;6,0;14,0;-100;1,0;0,0;2,0;3,0;column;1,0;True;True;True;1,78399991989;True;1,33199977875
GHA1996m;game;2017-02-23-09-00-03;6,0;15,0;-100;1,0;2,0;3,0;0,0;row;1,0;False;True;False;1,78200006485;True;0,694000005722
GHA1996m;game;2017-02-23-09-00-03;6,0;16,0;-100;1,0;2,0;3,0;0,0;column;1,0;False;True;False;2,31699991226;True;1,40199995041
GHA1996m;game;2017-02-23-09-00-03;6,0;17,0;-100;3,0;2,0;1,0;0,0;column;1,0;False;True;False;1,25099992752;True;1,36299991608
GHA1996m;game;2017-02-23-09-00-03;6,0;18,0;-100;3,0;0,0;2,0;1,0;row;0,0;True;True;True;1,382999897;True;0,531999826431
GHA1996m;game;2017-02-23-09-00-03;6,0;19,0;-100;0,0;2,0;3,0;1,0;row;0,0;False;False;False;1,31699991226;True;0,732000112534
GHA1996m;game;2017-02-23-09-00-03;6,0;20,0;-100;1,0;3,0;0,0;2,0;column;0,0;False;True;False;1,84899997711;True;1,16899991035
GHA1996m;game;2017-02-23-09-00-03;6,0;21,0;-100;2,0;3,0;1,0;0,0;column;0,0;True;True;True;1,78099989891;True;1,0
GHA1996m;game;2017-02-23-09-00-03;6,0;22,0;-100;1,0;0,0;2,0;3,0;row;1,0;True;False;True;1,68200016022;True;1,45799994469
GHA1996m;game;2017-02-23-09-00-03;6,0;23,0;-100;3,0;0,0;2,0;1,0;column;1,0;False;True;False;3,98300004005;True;0,53200006485
GHA1996m;game;2017-02-23-09-00-03;6,0;24,0;-100;1,0;0,0;3,0;2,0;column;1,0;False;False;False;1,25;True;0,963000059128
GHA1996m;game;2017-02-23-09-00-03;6,0;25,0;-100;1,0;3,0;2,0;0,0;column;0,0;True;True;True;1,81700015068;True;0,846999883652
GHA1996m;game;2017-02-23-09-00-03;6,0;26,0;-100;3,0;2,0;1,0;0,0;column;0,0;True;True;True;1,71700000763;True;1,0
GHA1996m;game;2017-02-23-09-00-03;6,0;27,0;-100;1,0;0,0;2,0;3,0;row;0,0;True;True;True;0,851000070572;True;1,40300011635
GHA1996m;game;2017-02-23-09-00-03;6,0;28,0;-100;0,0;2,0;1,0;3,0;row;1,0;False;False;False;1,85000014305;True;1,20199990273
GHA1996m;game;2017-02-23-09-00-03;6,0;29,0;-100;2,0;0,0;3,0;1,0;row;1,0;False;True;False;2,51699995995;True;0,892999887466
GHA1996m;game;2017-02-23-09-00-03;6,0;30,0;-100;2,0;1,0;0,0;3,0;column;1,0;False;True;False;1,68400001526;True;0,789000034332
GHA1996m;game;2017-02-23-09-00-03;6,0;31,0;-100;3,0;1,0;0,0;2,0;row;0,0;True;False;True;1,34999990463;True;0,928999900818
GHA1996m;game;2017-02-23-09-00-03;6,0;32,0;-100;0,0;1,0;2,0;3,0;column;1,0;False;True;False;2,11599993706;True;0,924999952316
GHA1996m;game;2017-02-23-09-00-03;6,0;33,0;-100;0,0;1,0;3,0;2,0;column;0,0;False;False;False;1,85099983215;True;0,733000040054
GHA1996m;game;2017-02-23-09-00-03;6,0;34,0;-100;0,0;3,0;2,0;1,0;row;1,0;False;False;False;2,24699997902;True;0,835000038147
GHA1996m;game;2017-02-23-09-00-03;6,0;35,0;-100;0,0;2,0;3,0;1,0;column;1,0;True;False;True;1,51600003242;True;0,896999835968
GHA1996m;game;2017-02-23-09-00-03;6,0;36,0;-100;3,0;2,0;0,0;1,0;column;1,0;False;False;False;1,81699991226;True;0,595999956131
GHA1996m;game;2017-02-23-09-00-03;6,0;37,0;-100;0,0;3,0;2,0;1,0;column;1,0;True;True;True;1,38300013542;True;1,29399991035
GHA1996m;game;2017-02-23-09-00-03;6,0;38,0;-100;3,0;1,0;0,0;2,0;row;1,0;False;False;False;1,68299984932;True;1,49699997902
GHA1996m;game;2017-02-23-09-00-03;6,0;39,0;-100;3,0;1,0;0,0;2,0;column;1,0;True;False;True;1,18099999428;True;1,26900005341
GHA1996m;game;2017-02-23-09-00-03;6,0;40,0;-100;3,0;0,0;1,0;2,0;column;1,0;True;True;True;1,882999897;True;1,09400010109
GHA1996m;game;2017-02-23-09-00-03;6,0;41,0;-100;2,0;0,0;3,0;1,0;column;1,0;True;True;True;1,35000014305;True;0,867000102997
GHA1996m;game;2017-02-23-09-00-03;6,0;42,0;-100;0,0;3,0;1,0;2,0;row;1,0;True;True;True;1,61500000954;True;1,15900015831
GHA1996m;game;2017-02-23-09-00-03;6,0;43,0;-100;1,0;2,0;3,0;0,0;column;0,0;True;True;True;1,91599988937;True;0,963000059128
GHA1996m;game;2017-02-23-09-00-03;6,0;44,0;-100;1,0;3,0;0,0;2,0;column;0,0;True;True;True;1,75;True;0,930000066757
GHA1996m;game;2017-02-23-09-00-03;6,0;45,0;-100;3,0;2,0;0,0;1,0;row;0,0;False;True;False;1,117000103;True;1,125
GHA1996m;game;2017-02-23-09-00-03;6,0;46,0;-100;0,0;3,0;1,0;2,0;row;1,0;False;False;False;1,94900012016;True;1,00300002098
GHA1996m;game;2017-02-23-09-00-03;6,0;47,0;-100;3,0;0,0;1,0;2,0;row;1,0;True;False;True;1,21499991417;True;0,797999858856
GHA1996m;game;2017-02-23-09-00-03;6,0;48,0;-100;0,0;1,0;2,0;3,0;column;1,0;True;True;True;1,55800008774;True;1,20000004768
GHA1996m;game;2017-02-23-09-00-03;7,0;1,0;-100;1,0;3,0;0,0;2,0;column;1,0;False;False;False;1,35099983215;True;1,38799977303
GHA1996m;game;2017-02-23-09-00-03;7,0;2,0;-100;2,0;0,0;1,0;3,0;column;1,0;True;False;True;1,15000009537;True;1,33100008965
GHA1996m;game;2017-02-23-09-00-03;7,0;3,0;-100;1,0;3,0;2,0;0,0;row;0,0;True;False;True;1,61599993706;True;1,06999993324
GHA1996m;game;2017-02-23-09-00-03;7,0;4,0;-100;3,0;2,0;1,0;0,0;column;1,0;True;False;True;1,15000009537;True;0,99799990654
GHA1996m;game;2017-02-23-09-00-03;7,0;5,0;-100;0,0;1,0;3,0;2,0;column;1,0;False;False;False;1,24900007248;True;1,02800011635
GHA1996m;game;2017-02-23-09-00-03;7,0;6,0;-100;3,0;2,0;0,0;1,0;row;0,0;True;False;True;0,75;True;0,769999980927
GHA1996m;game;2017-02-23-09-00-03;7,0;7,0;-100;1,0;3,0;0,0;2,0;row;1,0;True;False;True;1,31599998474;True;0,565999984741
GHA1996m;game;2017-02-23-09-00-03;7,0;8,0;-100;3,0;0,0;2,0;1,0;column;0,0;True;False;True;1,11699986458;True;1,257999897
GHA1996m;game;2017-02-23-09-00-03;7,0;9,0;-100;3,0;1,0;2,0;0,0;column;1,0;True;True;True;1,51699995995;True;0,787000179291
GHA1996m;game;2017-02-23-09-00-03;7,0;10,0;-100;3,0;1,0;0,0;2,0;column;0,0;False;False;False;1,41799998283;True;0,868000030518
GHA1996m;game;2017-02-23-09-00-03;7,0;11,0;-100;0,0;3,0;1,0;2,0;row;0,0;False;False;False;1,01699995995;True;0,730999946594
GHA1996m;game;2017-02-23-09-00-03;7,0;12,0;-100;2,0;0,0;3,0;1,0;column;1,0;False;True;False;1,28100013733;True;0,889999866486
GHA1996m;game;2017-02-23-09-00-03;7,0;13,0;-100;2,0;3,0;1,0;0,0;column;1,0;True;False;True;0,983000040054;True;0,529000043869
GHA1996m;game;2017-02-23-09-00-03;7,0;14,0;-100;1,0;2,0;3,0;0,0;row;0,0;False;False;False;1,15000009537;True;0,90299987793
GHA1996m;game;2017-02-23-09-00-03;7,0;15,0;-100;3,0;0,0;1,0;2,0;row;0,0;False;False;False;0,850000143051;True;0,898999929428
GHA1996m;game;2017-02-23-09-00-03;7,0;16,0;-100;2,0;1,0;3,0;0,0;row;0,0;True;False;True;1,11400008202;True;0,835999965668
GHA1996m;game;2017-02-23-09-00-03;7,0;17,0;-100;2,0;1,0;3,0;0,0;row;0,0;False;False;False;0,680999994278;True;1,46399998665
GHA1996m;game;2017-02-23-09-00-03;7,0;18,0;-100;0,0;3,0;2,0;1,0;row;0,0;False;True;False;0,717000007629;True;1,29699993134
GHA1996m;game;2017-02-23-09-00-03;7,0;19,0;-100;2,0;0,0;1,0;3,0;row;0,0;False;False;False;1,64999985695;True;0,865000009537
GHA1996m;game;2017-02-23-09-00-03;7,0;20,0;-100;2,0;3,0;0,0;1,0;column;1,0;False;False;False;1,51600003242;True;1,42700004578
GHA1996m;game;2017-02-23-09-00-03;7,0;21,0;-100;0,0;3,0;1,0;2,0;column;1,0;False;False;False;1,31599998474;True;1,43099999428
GHA1996m;game;2017-02-23-09-00-03;7,0;22,0;-100;3,0;0,0;1,0;2,0;row;1,0;False;True;False;1,18400001526;True;1,32999992371
GHA1996m;game;2017-02-23-09-00-03;7,0;23,0;-100;1,0;2,0;3,0;0,0;column;0,0;False;True;False;2,21700000763;True;0,933000087738
GHA1996m;game;2017-02-23-09-00-03;7,0;24,0;-100;1,0;3,0;2,0;0,0;row;1,0;False;False;False;1,21600008011;True;1,36899995804
GHA1996m;game;2017-02-23-09-00-03;7,0;25,0;-100;0,0;1,0;2,0;3,0;row;1,0;True;False;True;1,28199982643;True;0,62700009346
GHA1996m;game;2017-02-23-09-00-03;7,0;26,0;-100;2,0;0,0;1,0;3,0;row;1,0;True;True;True;1,05000019073;True;1,36599993706
GHA1996m;game;2017-02-23-09-00-03;7,0;27,0;-100;1,0;3,0;2,0;0,0;row;1,0;True;True;True;1,01599979401;True;1,42999982834
GHA1996m;game;2017-02-23-09-00-03;7,0;28,0;-100;3,0;0,0;1,0;2,0;column;1,0;False;True;False;2,78200006485;True;0,736000061035
GHA1996m;game;2017-02-23-09-00-03;7,0;29,0;-100;2,0;1,0;0,0;3,0;row;1,0;True;False;True;1,01699995995;True;0,699999809265
GHA1996m;game;2017-02-23-09-00-03;7,0;30,0;-100;1,0;0,0;3,0;2,0;column;1,0;True;False;True;1,28299999237;True;0,62700009346
GHA1996m;game;2017-02-23-09-00-03;7,0;31,0;-100;3,0;1,0;2,0;0,0;row;1,0;False;True;False;1,38400006294;True;1,32899999619
GHA1996m;game;2017-02-23-09-00-03;7,0;32,0;-100;1,0;3,0;2,0;0,0;column;1,0;False;True;False;1,882999897;True;1,29699993134
GHA1996m;game;2017-02-23-09-00-03;7,0;33,0;-100;0,0;2,0;3,0;1,0;row;1,0;False;False;False;1,11699986458;True;1,09599995613
GHA1996m;game;2017-02-23-09-00-03;7,0;34,0;-100;2,0;3,0;0,0;1,0;column;0,0;True;False;True;1,84899997711;True;1,36000013351
GHA1996m;game;2017-02-23-09-00-03;7,0;35,0;-100;1,0;0,0;2,0;3,0;row;0,0;False;True;False;1,11800003052;True;0,829999923706
GHA1996m;game;2017-02-23-09-00-03;7,0;36,0;-100;2,0;3,0;1,0;0,0;row;1,0;True;True;True;2,41499996185;True;0,563999891281
GHA1996m;game;2017-02-23-09-00-03;7,0;37,0;-100;2,0;3,0;1,0;0,0;column;0,0;False;True;False;1,31699991226;True;0,901999950409
GHA1996m;game;2017-02-23-09-00-03;7,0;38,0;-100;0,0;2,0;1,0;3,0;row;0,0;True;True;True;1,41700005531;True;1,46499991417
GHA1996m;game;2017-02-23-09-00-03;7,0;39,0;-100;0,0;3,0;2,0;1,0;column;0,0;True;False;True;1,117000103;True;1,09899997711
GHA1996m;game;2017-02-23-09-00-03;7,0;40,0;-100;0,0;1,0;3,0;2,0;row;0,0;True;True;True;1,01699995995;True;0,729000091553
GHA1996m;game;2017-02-23-09-00-03;7,0;41,0;-100;0,0;3,0;1,0;2,0;column;1,0;True;False;True;1,81599998474;True;0,895000219345
GHA1996m;game;2017-02-23-09-00-03;7,0;42,0;-100;1,0;2,0;0,0;3,0;column;0,0;True;True;True;1,5150001049;True;0,598999977112
GHA1996m;game;2017-02-23-09-00-03;7,0;43,0;-100;3,0;0,0;1,0;2,0;column;0,0;False;False;False;1,28399991989;True;0,936000108719
GHA1996m;game;2017-02-23-09-00-03;7,0;44,0;-100;3,0;1,0;0,0;2,0;column;1,0;False;True;False;1,48300004005;True;0,796000003815
GHA1996m;game;2017-02-23-09-00-03;7,0;45,0;-100;3,0;1,0;0,0;2,0;row;0,0;False;False;False;0,847999811172;True;0,93499994278
GHA1996m;game;2017-02-23-09-00-03;7,0;46,0;-100;1,0;2,0;0,0;3,0;row;1,0;True;True;True;1,38300013542;True;0,804000139236
GHA1996m;game;2017-02-23-09-00-03;7,0;47,0;-100;3,0;1,0;2,0;0,0;row;0,0;True;True;True;0,983000040054;True;1,33399987221
GHA1996m;game;2017-02-23-09-00-03;7,0;48,0;-100;2,0;3,0;1,0;0,0;row;0,0;True;False;True;1,25;True;0,924999952316
GHA1996m;game;2017-02-23-09-00-03;8,0;1,0;1000;0,0;1,0;3,0;2,0;column;0,0;False;False;False;1,66699981689;True;0,545000076294
GHA1996m;game;2017-02-23-09-00-03;8,0;2,0;1000;2,0;1,0;0,0;3,0;row;0,0;True;False;True;0,900000095367;True;0,761999845505
GHA1996m;game;2017-02-23-09-00-03;8,0;3,0;1000;3,0;1,0;0,0;2,0;row;1,0;True;True;True;1,46700000763;True;1,19900012016
GHA1996m;game;2017-02-23-09-00-03;8,0;4,0;1000;3,0;2,0;0,0;1,0;row;0,0;False;False;False;1,23399996758;True;0,633000135422
GHA1996m;game;2017-02-23-09-00-03;8,0;5,0;1000;2,0;1,0;3,0;0,0;row;0,0;False;False;False;1,20000004768;True;0,767999887466
GHA1996m;game;2017-02-23-09-00-03;8,0;6,0;1000;2,0;1,0;3,0;0,0;column;0,0;True;True;False;2,20000004768;False;0,694000005722
GHA1996m;game;2017-02-23-09-00-03;8,0;7,0;1000;1,0;0,0;2,0;3,0;column;1,0;False;True;False;1,83299994469;True;1,00299978256
GHA1996m;game;2017-02-23-09-00-03;8,0;8,0;1000;2,0;3,0;1,0;0,0;row;1,0;False;True;False;1,33400011063;True;0,901000022888
GHA1996m;game;2017-02-23-09-00-03;8,0;9,0;1000;2,0;3,0;0,0;1,0;row;0,0;False;True;False;1,39999985695;True;1,02900004387
GHA1996m;game;2017-02-23-09-00-03;8,0;10,0;1000;2,0;0,0;1,0;3,0;row;1,0;False;True;False;1,26600003242;True;1,33200001717
GHA1996m;game;2017-02-23-09-00-03;8,0;11,0;1000;0,0;2,0;1,0;3,0;row;0,0;True;True;True;1,132999897;True;1,45999979973
GHA1996m;game;2017-02-23-09-00-03;8,0;12,0;1000;1,0;3,0;0,0;2,0;row;1,0;True;False;True;1,29899978638;True;1,4319999218
GHA1996m;game;2017-02-23-09-00-03;8,0;13,0;1000;2,0;0,0;3,0;1,0;column;0,0;True;False;False;2,20000004768;False;0,701999902725
GHA1996m;game;2017-02-23-09-00-03;8,0;14,0;1000;2,0;1,0;0,0;3,0;row;1,0;False;False;True;2,06700015068;False;0,898000001907
GHA1996m;game;2017-02-23-09-00-03;8,0;15,0;1000;3,0;0,0;1,0;2,0;row;0,0;True;False;True;0,766000032425;True;1,1970000267
GHA1996m;game;2017-02-23-09-00-03;8,0;16,0;1000;2,0;0,0;3,0;1,0;row;1,0;False;True;False;1,63300013542;True;1,34100008011
GHA1996m;game;2017-02-23-09-00-03;8,0;17,0;1000;1,0;3,0;0,0;2,0;column;1,0;True;True;True;2,26699995995;True;0,930000066757
GHA1996m;game;2017-02-23-09-00-03;8,0;18,0;1000;1,0;3,0;2,0;0,0;row;1,0;False;True;False;1,73300004005;True;0,833000183105
GHA1996m;game;2017-02-23-09-00-03;8,0;19,0;1000;0,0;2,0;1,0;3,0;row;1,0;True;True;True;3,0;True;1,22600007057
GHA1996m;game;2017-02-23-09-00-03;8,0;20,0;1000;3,0;0,0;1,0;2,0;column;0,0;True;True;False;2,10100007057;False;0,862999916077
GHA1996m;game;2017-02-23-09-00-03;8,0;21,0;1000;3,0;1,0;0,0;2,0;row;0,0;True;True;True;1,29999995232;True;0,703999996185
GHA1996m;game;2017-02-23-09-00-03;8,0;22,0;1000;3,0;0,0;2,0;1,0;row;0,0;True;True;True;0,967000007629;True;1,33399987221
GHA1996m;game;2017-02-23-09-00-03;8,0;23,0;1000;1,0;0,0;3,0;2,0;column;0,0;True;False;True;2,86699986458;True;0,664000034332
GHA1996m;game;2017-02-23-09-00-03;8,0;24,0;1000;3,0;1,0;2,0;0,0;column;1,0;True;True;True;2,09999990463;True;1,06399989128
GHA1996m;game;2017-02-23-09-00-03;8,0;25,0;1000;0,0;3,0;2,0;1,0;column;0,0;False;False;False;2,26699995995;True;0,798000097275
GHA1996m;game;2017-02-23-09-00-03;8,0;26,0;1000;3,0;1,0;2,0;0,0;row;1,0;False;True;False;2,26700019836;True;0,731999874115
GHA1996m;game;2017-02-23-09-00-03;8,0;27,0;1000;2,0;3,0;1,0;0,0;column;1,0;True;True;True;1,83300018311;True;1,43600010872
GHA1996m;game;2017-02-23-09-00-03;8,0;28,0;1000;3,0;2,0;1,0;0,0;column;1,0;True;True;True;1,89999985695;True;1,16700005531
GHA1996m;game;2017-02-23-09-00-03;8,0;29,0;1000;3,0;0,0;2,0;1,0;row;0,0;False;False;False;2,56700015068;True;1,1970000267
GHA1996m;game;2017-02-23-09-00-03;8,0;30,0;1000;0,0;1,0;3,0;2,0;row;0,0;True;True;False;2,93300008774;False;0,964999914169
GHA1996m;game;2017-02-23-09-00-03;8,0;31,0;1000;1,0;2,0;0,0;3,0;row;1,0;True;True;True;3,36800003052;True;0,831000089645
GHA1996m;game;2017-02-23-09-00-03;8,0;32,0;1000;0,0;2,0;3,0;1,0;column;0,0;False;True;False;2,40000009537;True;0,566999912262
GHA1996m;game;2017-02-23-09-00-03;8,0;33,0;1000;1,0;0,0;2,0;3,0;row;1,0;False;False;False;2,96700000763;True;1,12400007248
GHA1996m;game;2017-02-23-09-00-03;8,0;34,0;1000;2,0;3,0;1,0;0,0;row;0,0;False;True;False;1,60300016403;True;0,861999988556
GHA1996m;game;2017-02-23-09-00-03;8,0;35,0;1000;3,0;2,0;1,0;0,0;column;0,0;True;True;True;1,63300013542;True;1,2349998951
GHA1996m;game;2017-02-23-09-00-03;8,0;36,0;1000;3,0;2,0;0,0;1,0;row;0,0;True;False;True;2,06599998474;True;1,2009999752
GHA1996m;game;2017-02-23-09-00-03;8,0;37,0;1000;3,0;1,0;0,0;2,0;column;1,0;True;True;False;1,50099992752;False;0,97000002861
GHA1996m;game;2017-02-23-09-00-03;8,0;38,0;1000;0,0;3,0;1,0;2,0;column;1,0;False;True;False;1,43299984932;True;1,36699986458
GHA1996m;game;2017-02-23-09-00-03;8,0;39,0;1000;0,0;1,0;2,0;3,0;row;0,0;False;True;False;2,23199987411;True;1,03600001335
GHA1996m;game;2017-02-23-09-00-03;8,0;40,0;1000;2,0;3,0;0,0;1,0;row;1,0;True;True;True;3,33299994469;True;0,535000085831
GHA1996m;game;2017-02-23-09-00-03;8,0;41,0;1000;2,0;0,0;3,0;1,0;column;0,0;False;False;False;1,867000103;True;0,598000049591
GHA1996m;game;2017-02-23-09-00-03;8,0;42,0;1000;0,0;3,0;2,0;1,0;column;1,0;False;True;False;1,79999995232;True;0,700000047684
GHA1996m;game;2017-02-23-09-00-03;8,0;43,0;1000;3,0;2,0;0,0;1,0;column;0,0;True;False;True;2,43300008774;True;1,4359998703
GHA1996m;game;2017-02-23-09-00-03;8,0;44,0;1000;3,0;0,0;2,0;1,0;row;1,0;False;True;False;1,80000019073;True;0,630999803543
GHA1996m;game;2017-02-23-09-00-03;8,0;45,0;1000;3,0;1,0;0,0;2,0;column;0,0;True;False;True;2,16700005531;True;0,898000001907
GHA1996m;game;2017-02-23-09-00-03;8,0;46,0;1000;2,0;1,0;3,0;0,0;row;1,0;False;False;True;3,43400001526;False;0,868000030518
GHA1996m;game;2017-02-23-09-00-03;8,0;47,0;1000;2,0;3,0;1,0;0,0;row;0,0;True;True;True;0,900000095367;True;1,23100018501
GHA1996m;game;2017-02-23-09-00-03;8,0;48,0;1000;3,0;1,0;0,0;2,0;column;0,0;False;True;True;2,06699991226;False;1,13700008392
GHA1996m;game;2017-02-23-09-00-03;9,0;1,0;100;2,0;1,0;0,0;3,0;row;0,0;True;False;True;1,53299999237;True;1,40300011635
GHA1996m;game;2017-02-23-09-00-03;9,0;2,0;100;3,0;2,0;0,0;1,0;column;0,0;True;False;True;1,13400006294;True;1,39499998093
GHA1996m;game;2017-02-23-09-00-03;9,0;3,0;100;2,0;3,0;1,0;0,0;column;1,0;False;False;False;1,26600003242;True;1,0640001297
GHA1996m;game;2017-02-23-09-00-03;9,0;4,0;100;1,0;3,0;2,0;0,0;row;0,0;True;True;True;1,43400001526;True;1,29200005531
GHA1996m;game;2017-02-23-09-00-03;9,0;5,0;100;1,0;0,0;3,0;2,0;column;1,0;True;False;True;1,60000014305;True;0,933000087738
GHA1996m;game;2017-02-23-09-00-03;9,0;6,0;100;2,0;1,0;0,0;3,0;column;0,0;True;False;True;1,06599998474;True;0,694999933243
GHA1996m;game;2017-02-23-09-00-03;9,0;7,0;100;3,0;2,0;1,0;0,0;row;1,0;False;False;False;1,26699995995;True;1,12700009346
GHA1996m;game;2017-02-23-09-00-03;9,0;8,0;100;0,0;2,0;3,0;1,0;row;1,0;False;False;False;1,40100002289;True;1,08899998665
GHA1996m;game;2017-02-23-09-00-03;9,0;9,0;100;0,0;2,0;1,0;3,0;row;1,0;True;True;True;1,29800009727;True;1,19899988174
GHA1996m;game;2017-02-23-09-00-03;9,0;10,0;100;0,0;3,0;2,0;1,0;column;1,0;False;True;True;1,93300008774;False;0,866000175476
GHA1996m;game;2017-02-23-09-00-03;9,0;11,0;100;0,0;2,0;3,0;1,0;column;1,0;False;False;False;1,56599998474;True;1,16799998283
GHA1996m;game;2017-02-23-09-00-03;9,0;12,0;100;3,0;0,0;2,0;1,0;row;0,0;False;False;False;1,0;True;0,703000068665
GHA1996m;game;2017-02-23-09-00-03;9,0;13,0;100;3,0;2,0;1,0;0,0;row;0,0;False;True;False;0,931999921799;True;1,4319999218
GHA1996m;game;2017-02-23-09-00-03;9,0;14,0;100;0,0;3,0;2,0;1,0;row;1,0;False;True;False;1,26499986649;True;1,13100004196
GHA1996m;game;2017-02-23-09-00-03;9,0;15,0;100;1,0;3,0;2,0;0,0;column;0,0;True;False;True;1,19899988174;True;1,36599993706
GHA1996m;game;2017-02-23-09-00-03;9,0;16,0;100;1,0;3,0;0,0;2,0;column;0,0;False;True;False;1,36800003052;True;0,570000171661
GHA1996m;game;2017-02-23-09-00-03;9,0;17,0;100;0,0;1,0;3,0;2,0;row;1,0;True;False;False;1,53399991989;False;1,46599984169
GHA1996m;game;2017-02-23-09-00-03;9,0;18,0;100;3,0;1,0;2,0;0,0;column;1,0;True;True;True;1,30000019073;True;1,40100002289
GHA1996m;game;2017-02-23-09-00-03;9,0;19,0;100;2,0;3,0;0,0;1,0;row;0,0;False;True;False;0,999000072479;True;0,799000024796
GHA1996m;game;2017-02-23-09-00-03;9,0;20,0;100;2,0;0,0;3,0;1,0;row;0,0;False;True;False;1,00099992752;True;0,631000041962
GHA1996m;game;2017-02-23-09-00-03;9,0;21,0;100;3,0;1,0;2,0;0,0;row;1,0;True;True;True;1,89999985695;True;0,899999856949
GHA1996m;game;2017-02-23-09-00-03;9,0;22,0;100;0,0;1,0;3,0;2,0;row;1,0;False;True;False;1,70000004768;True;1,10300016403
GHA1996m;game;2017-02-23-09-00-03;9,0;23,0;100;2,0;0,0;3,0;1,0;column;0,0;True;False;True;1,73300004005;True;0,533000230789
GHA1996m;game;2017-02-23-09-00-03;9,0;24,0;100;3,0;2,0;1,0;0,0;column;1,0;False;False;False;1,5;True;0,629999876022
GHA1996m;game;2017-02-23-09-00-03;9,0;25,0;100;2,0;1,0;3,0;0,0;row;0,0;True;True;True;1,16499996185;True;0,828000068665
GHA1996m;game;2017-02-23-09-00-03;9,0;26,0;100;1,0;2,0;3,0;0,0;row;0,0;True;True;False;0,866000175476;False;1,26900005341
GHA1996m;game;2017-02-23-09-00-03;9,0;27,0;100;1,0;3,0;2,0;0,0;column;1,0;False;True;True;1,53299999237;False;0,53400015831
GHA1996m;game;2017-02-23-09-00-03;9,0;28,0;100;0,0;2,0;3,0;1,0;row;0,0;False;True;False;1,03500008583;True;1,49499988556
GHA1996m;game;2017-02-23-09-00-03;9,0;29,0;100;0,0;3,0;1,0;2,0;column;0,0;True;True;True;2,03200006485;True;0,966000080109
GHA1996m;game;2017-02-23-09-00-03;9,0;30,0;100;3,0;0,0;1,0;2,0;row;0,0;False;False;False;1,26699995995;True;0,964999914169
GHA1996m;game;2017-02-23-09-00-03;9,0;31,0;100;3,0;0,0;2,0;1,0;row;1,0;True;True;True;1,46700000763;True;0,588999986649
GHA1996m;game;2017-02-23-09-00-03;9,0;32,0;100;3,0;0,0;2,0;1,0;column;1,0;False;True;False;1,26600003242;True;0,694999933243
GHA1996m;game;2017-02-23-09-00-03;9,0;33,0;100;3,0;2,0;1,0;0,0;row;1,0;True;True;False;2,0;False;0,834000110626
GHA1996m;game;2017-02-23-09-00-03;9,0;34,0;100;3,0;2,0;1,0;0,0;row;0,0;True;False;True;1,0;True;0,869999885559
GHA1996m;game;2017-02-23-09-00-03;9,0;35,0;100;3,0;1,0;2,0;0,0;row;0,0;False;False;False;1,03299999237;True;0,796000003815
GHA1996m;game;2017-02-23-09-00-03;9,0;36,0;100;2,0;1,0;3,0;0,0;row;1,0;True;True;False;2,13199996948;False;0,761000156403
GHA1996m;game;2017-02-23-09-00-03;9,0;37,0;100;2,0;1,0;0,0;3,0;column;1,0;False;True;True;1,76699995995;False;0,828999996185
GHA1996m;game;2017-02-23-09-00-03;9,0;38,0;100;3,0;2,0;1,0;0,0;column;0,0;False;False;False;2,46599984169;True;1,4319999218
GHA1996m;game;2017-02-23-09-00-03;9,0;39,0;100;1,0;3,0;2,0;0,0;column;1,0;True;True;True;1,40000009537;True;0,924999952316
GHA1996m;game;2017-02-23-09-00-03;9,0;40,0;100;2,0;3,0;0,0;1,0;column;0,0;True;True;True;1,86800003052;True;0,924999952316
GHA1996m;game;2017-02-23-09-00-03;9,0;41,0;100;3,0;1,0;0,0;2,0;row;0,0;False;False;False;1,06599998474;True;0,865000009537
GHA1996m;game;2017-02-23-09-00-03;9,0;42,0;100;3,0;0,0;2,0;1,0;column;1,0;True;False;True;1,13400006294;True;1,16100001335
GHA1996m;game;2017-02-23-09-00-03;9,0;43,0;100;0,0;1,0;3,0;2,0;row;0,0;True;True;False;1,43300008774;False;0,535000085831
GHA1996m;game;2017-02-23-09-00-03;9,0;44,0;100;2,0;3,0;1,0;0,0;column;0,0;False;False;False;1,66600012779;True;0,637999773026
GHA1996m;game;2017-02-23-09-00-03;9,0;45,0;100;2,0;1,0;0,0;3,0;column;1,0;True;False;False;2,53299999237;False;0,870000123978
GHA1996m;game;2017-02-23-09-00-03;9,0;46,0;100;3,0;1,0;0,0;2,0;row;0,0;True;True;False;1,43299984932;False;0,802999973297
GHA1996m;game;2017-02-23-09-00-03;9,0;47,0;100;0,0;2,0;1,0;3,0;column;0,0;False;True;True;2,39999985695;False;0,568000078201
GHA1996m;game;2017-02-23-09-00-03;9,0;48,0;100;1,0;0,0;2,0;3,0;row;1,0;True;True;True;2,13400006294;True;1,16799998283
GHA1996m;game;2017-02-23-09-00-03;10,0;1,0;-100;1,0;0,0;2,0;3,0;column;1,0;False;False;False;2,45000004768;True;1,0759999752
GHA1996m;game;2017-02-23-09-00-03;10,0;2,0;-100;0,0;2,0;1,0;3,0;column;1,0;False;True;False;1,61699986458;True;0,825999975204
GHA1996m;game;2017-02-23-09-00-03;10,0;3,0;-100;3,0;2,0;1,0;0,0;column;0,0;False;False;False;1,75;True;0,723999977112
GHA1996m;game;2017-02-23-09-00-03;10,0;4,0;-100;3,0;2,0;1,0;0,0;row;1,0;False;False;False;2,21500015259;True;1,06699991226
GHA1996m;game;2017-02-23-09-00-03;10,0;5,0;-100;1,0;0,0;3,0;2,0;row;0,0;True;True;True;0,983000040054;True;0,728999853134
GHA1996m;game;2017-02-23-09-00-03;10,0;6,0;-100;1,0;3,0;2,0;0,0;row;0,0;False;False;False;1,21599984169;True;1,2650001049
GHA1996m;game;2017-02-23-09-00-03;10,0;7,0;-100;0,0;3,0;2,0;1,0;row;1,0;True;True;True;1,28300023079;True;0,829999923706
GHA1996m;game;2017-02-23-09-00-03;10,0;8,0;-100;3,0;2,0;0,0;1,0;column;0,0;True;False;True;1,78200006485;True;1,23200011253
GHA1996m;game;2017-02-23-09-00-03;10,0;9,0;-100;2,0;1,0;3,0;0,0;column;1,0;True;True;True;2,01400017738;True;1,16000008583
GHA1996m;game;2017-02-23-09-00-03;10,0;10,0;-100;1,0;2,0;3,0;0,0;column;1,0;True;True;True;1,3140001297;True;1,39499998093
GHA1996m;game;2017-02-23-09-00-03;10,0;11,0;-100;1,0;2,0;3,0;0,0;row;0,0;True;False;True;1,08299994469;True;0,999000072479
GHA1996m;game;2017-02-23-09-00-03;10,0;12,0;-100;3,0;1,0;2,0;0,0;column;0,0;False;True;False;1,95000004768;True;1,40000009537
GHA1996m;game;2017-02-23-09-00-03;10,0;13,0;-100;2,0;0,0;1,0;3,0;row;0,0;True;True;True;0,81500005722;True;1,06999993324
GHA1996m;game;2017-02-23-09-00-03;10,0;14,0;-100;3,0;1,0;0,0;2,0;row;1,0;True;False;True;1,11699986458;True;1,0649998188
GHA1996m;game;2017-02-23-09-00-03;10,0;15,0;-100;1,0;2,0;0,0;3,0;column;1,0;True;False;True;1,18299984932;True;0,868999958038
GHA1996m;game;2017-02-23-09-00-03;10,0;16,0;-100;2,0;1,0;3,0;0,0;column;0,0;True;True;True;1,58299994469;True;1,09800004959
GHA1996m;game;2017-02-23-09-00-03;10,0;17,0;-100;2,0;1,0;3,0;0,0;column;1,0;False;False;False;1,81700015068;True;0,663000106812
GHA1996m;game;2017-02-23-09-00-03;10,0;18,0;-100;2,0;3,0;1,0;0,0;row;0,0;False;False;False;1,21700000763;True;1,38999986649
GHA1996m;game;2017-02-23-09-00-03;10,0;19,0;-100;2,0;0,0;1,0;3,0;column;0,0;False;True;False;1,45000004768;True;0,532999992371
GHA1996m;game;2017-02-23-09-00-03;10,0;20,0;-100;0,0;2,0;1,0;3,0;column;1,0;True;False;True;1,14999985695;True;1,33599996567
GHA1996m;game;2017-02-23-09-00-03;10,0;21,0;-100;1,0;2,0;3,0;0,0;row;1,0;True;False;True;1,21600008011;True;1,20199990273
GHA1996m;game;2017-02-23-09-00-03;10,0;22,0;-100;0,0;3,0;1,0;2,0;column;0,0;False;True;False;1,61699986458;True;0,866999864578
GHA1996m;game;2017-02-23-09-00-03;10,0;23,0;-100;2,0;3,0;1,0;0,0;row;1,0;False;False;False;1,41700005531;True;0,53200006485
GHA1996m;game;2017-02-23-09-00-03;10,0;24,0;-100;0,0;2,0;3,0;1,0;column;1,0;False;True;False;1,78399991989;True;1,49300003052
GHA1996m;game;2017-02-23-09-00-03;10,0;25,0;-100;1,0;0,0;3,0;2,0;row;1,0;False;False;False;1,48399996758;True;0,567000150681
GHA1996m;game;2017-02-23-09-00-03;10,0;26,0;-100;2,0;1,0;0,0;3,0;row;1,0;False;False;False;1,71600008011;True;1,29600000381
GHA1996m;game;2017-02-23-09-00-03;10,0;27,0;-100;3,0;0,0;1,0;2,0;row;0,0;True;True;True;0,917000055313;True;1,49899983406
GHA1996m;game;2017-02-23-09-00-03;10,0;28,0;-100;2,0;3,0;0,0;1,0;column;1,0;True;False;True;1,382999897;True;0,563999891281
GHA1996m;game;2017-02-23-09-00-03;10,0;29,0;-100;0,0;1,0;2,0;3,0;column;0,0;True;False;True;1,75;True;0,631999969482
GHA1996m;game;2017-02-23-09-00-03;10,0;30,0;-100;3,0;2,0;1,0;0,0;row;1,0;True;False;True;1,01600003242;True;0,868999958038
GHA1996m;game;2017-02-23-09-00-03;10,0;31,0;-100;0,0;1,0;3,0;2,0;column;1,0;True;False;True;1,91799998283;True;0,898999929428
GHA1996m;game;2017-02-23-09-00-03;10,0;32,0;-100;3,0;2,0;0,0;1,0;row;1,0;False;False;False;1,25;True;1,13000011444
GHA1996m;game;2017-02-23-09-00-03;10,0;33,0;-100;1,0;3,0;2,0;0,0;column;0,0;False;True;False;1,68300008774;True;1,06599998474
GHA1996m;game;2017-02-23-09-00-03;10,0;34,0;-100;3,0;1,0;2,0;0,0;row;0,0;False;True;False;0,983999967575;True;0,964999914169
GHA1996m;game;2017-02-23-09-00-03;10,0;35,0;-100;3,0;0,0;2,0;1,0;row;0,0;False;True;False;0,982000112534;True;1,26699995995
GHA1996m;game;2017-02-23-09-00-03;10,0;36,0;-100;2,0;0,0;3,0;1,0;row;0,0;True;False;True;1,08299994469;True;1,23000001907
GHA1996m;game;2017-02-23-09-00-03;10,0;37,0;-100;1,0;0,0;3,0;2,0;column;0,0;True;True;True;2,45000004768;True;1,06500005722
GHA1996m;game;2017-02-23-09-00-03;10,0;38,0;-100;2,0;1,0;0,0;3,0;column;1,0;True;True;True;1,84900021553;True;1,25800013542
GHA1996m;game;2017-02-23-09-00-03;10,0;39,0;-100;2,0;1,0;3,0;0,0;row;1,0;False;False;True;1,41700005531;False;0,802999973297
GHA1996m;game;2017-02-23-09-00-03;10,0;40,0;-100;2,0;0,0;3,0;1,0;column;0,0;True;False;True;0,951000213623;True;1,23399996758
GHA1996m;game;2017-02-23-09-00-03;10,0;41,0;-100;0,0;3,0;1,0;2,0;column;0,0;True;True;True;1,31900000572;True;0,803999900818
GHA1996m;game;2017-02-23-09-00-03;10,0;42,0;-100;3,0;0,0;2,0;1,0;column;1,0;True;False;True;1,01699995995;True;0,596999883652
GHA1996m;game;2017-02-23-09-00-03;10,0;43,0;-100;1,0;0,0;3,0;2,0;column;0,0;False;True;False;1,85000014305;True;1,06299996376
GHA1996m;game;2017-02-23-09-00-03;10,0;44,0;-100;2,0;0,0;3,0;1,0;column;0,0;False;True;False;1,25;True;0,664999961853
GHA1996m;game;2017-02-23-09-00-03;10,0;45,0;-100;3,0;1,0;2,0;0,0;row;1,0;True;True;True;1,41199994087;True;0,65900015831
GHA1996m;game;2017-02-23-09-00-03;10,0;46,0;-100;0,0;1,0;3,0;2,0;column;0,0;True;True;True;1,04999995232;True;1,06699991226
GHA1996m;game;2017-02-23-09-00-03;10,0;47,0;-100;2,0;3,0;0,0;1,0;row;1,0;False;True;False;1,51699995995;True;1,46799993515
GHA1996m;game;2017-02-23-09-00-03;10,0;48,0;-100;2,0;1,0;3,0;0,0;column;0,0;False;False;False;1,04999995232;True;1,03299999237
GHA1996m;game;2017-02-23-09-00-03;11,0;1,0;100;1,0;0,0;2,0;3,0;row;1,0;False;True;False;1,70100021362;True;0,609000205994
GHA1996m;game;2017-02-23-09-00-03;11,0;2,0;100;0,0;3,0;1,0;2,0;column;0,0;False;True;False;1,13400006294;True;1,35699987411
GHA1996m;game;2017-02-23-09-00-03;11,0;3,0;100;2,0;1,0;3,0;0,0;row;1,0;False;True;True;1,60100007057;False;1,1970000267
GHA1996m;game;2017-02-23-09-00-03;11,0;4,0;100;3,0;0,0;1,0;2,0;row;1,0;True;False;True;1,29999995232;True;0,901999950409
GHA1996m;game;2017-02-23-09-00-03;11,0;5,0;100;3,0;1,0;2,0;0,0;column;0,0;False;False;False;1,23199987411;True;0,570000171661
GHA1996m;game;2017-02-23-09-00-03;11,0;6,0;100;1,0;2,0;0,0;3,0;row;0,0;True;True;True;2,13300013542;True;0,792000055313
GHA1996m;game;2017-02-23-09-00-03;11,0;7,0;100;2,0;3,0;0,0;1,0;column;1,0;True;True;True;1,80000019073;True;1,23500013351
GHA1996m;game;2017-02-23-09-00-03;11,0;8,0;100;0,0;3,0;1,0;2,0;row;1,0;False;True;False;2,20000004768;True;1,43300008774
GHA1996m;game;2017-02-23-09-00-03;11,0;9,0;100;0,0;1,0;3,0;2,0;column;0,0;True;True;True;1,53100013733;True;1,39600014687
GHA1996m;game;2017-02-23-09-00-03;11,0;10,0;100;1,0;0,0;2,0;3,0;column;0,0;True;True;True;2,0;True;1,06999993324
GHA1996m;game;2017-02-23-09-00-03;11,0;11,0;100;0,0;2,0;1,0;3,0;row;0,0;False;True;False;0,900000095367;True;1,43000006676
GHA1996m;game;2017-02-23-09-00-03;11,0;12,0;100;1,0;2,0;3,0;0,0;row;0,0;False;False;False;1,90000009537;True;0,723999977112
GHA1996m;game;2017-02-23-09-00-03;11,0;13,0;100;3,0;2,0;1,0;0,0;column;1,0;True;False;True;1,59999990463;True;0,697999954224
GHA1996m;game;2017-02-23-09-00-03;11,0;14,0;100;0,0;3,0;2,0;1,0;column;0,0;False;True;False;1,33400011063;True;0,829999923706
GHA1996m;game;2017-02-23-09-00-03;11,0;15,0;100;3,0;0,0;1,0;2,0;column;0,0;False;True;False;1,56699991226;True;0,803999900818
GHA1996m;game;2017-02-23-09-00-03;11,0;16,0;100;3,0;1,0;2,0;0,0;row;1,0;False;True;False;2,53299999237;True;0,595999956131
GHA1996m;game;2017-02-23-09-00-03;11,0;17,0;100;0,0;2,0;3,0;1,0;column;1,0;True;True;False;2,59999990463;False;1,22199988365
GHA1996m;game;2017-02-23-09-00-03;11,0;18,0;100;0,0;3,0;1,0;2,0;column;1,0;True;False;True;1,36999988556;True;1,46700000763
GHA1996m;game;2017-02-23-09-00-03;11,0;19,0;100;2,0;0,0;3,0;1,0;column;0,0;False;False;False;1,93299984932;True;1,49900007248
GHA1996m;game;2017-02-23-09-00-03;11,0;20,0;100;0,0;1,0;2,0;3,0;row;1,0;True;True;True;1,53400015831;True;1,02900004387
GHA1996m;game;2017-02-23-09-00-03;11,0;21,0;100;2,0;1,0;3,0;0,0;column;1,0;True;False;True;1,66699981689;True;1,00099992752
GHA1996m;game;2017-02-23-09-00-03;11,0;22,0;100;1,0;2,0;0,0;3,0;row;1,0;True;False;True;1,23399996758;True;1,16999983788
GHA1996m;game;2017-02-23-09-00-03;11,0;23,0;100;0,0;1,0;2,0;3,0;column;1,0;False;False;False;1,93300008774;True;1,46599984169
GHA1996m;game;2017-02-23-09-00-03;11,0;24,0;100;2,0;0,0;1,0;3,0;row;1,0;True;True;True;1,36599993706;True;0,861000061035
GHA1996m;game;2017-02-23-09-00-03;11,0;25,0;100;2,0;1,0;3,0;0,0;row;0,0;False;False;False;1,0;True;1,4319999218
GHA1996m;game;2017-02-23-09-00-03;11,0;26,0;100;0,0;3,0;1,0;2,0;row;1,0;True;False;True;1,26699995995;True;1,12999987602
GHA1996m;game;2017-02-23-09-00-03;11,0;27,0;100;3,0;0,0;2,0;1,0;column;0,0;False;True;False;1,10000014305;True;1,20200014114
GHA1996m;game;2017-02-23-09-00-03;11,0;28,0;100;0,0;3,0;2,0;1,0;row;1,0;True;True;True;1,40000009537;True;0,894000053406
GHA1996m;game;2017-02-23-09-00-03;11,0;29,0;100;0,0;3,0;1,0;2,0;column;1,0;False;True;False;1,46700000763;True;0,731000185013
GHA1996m;game;2017-02-23-09-00-03;11,0;30,0;100;3,0;1,0;0,0;2,0;column;1,0;True;False;True;1,73399996758;True;0,797000169754
GHA1996m;game;2017-02-23-09-00-03;11,0;31,0;100;3,0;1,0;0,0;2,0;column;0,0;False;False;False;1,73300004005;True;1,0
GHA1996m;game;2017-02-23-09-00-03;11,0;32,0;100;0,0;1,0;2,0;3,0;row;0,0;True;False;True;1,06700015068;True;1,0
GHA1996m;game;2017-02-23-09-00-03;11,0;33,0;100;0,0;2,0;1,0;3,0;row;1,0;False;True;False;1,49899983406;True;1,05800008774
GHA1996m;game;2017-02-23-09-00-03;11,0;34,0;100;0,0;1,0;3,0;2,0;column;1,0;False;False;False;1,96799993515;True;0,59600019455
GHA1996m;game;2017-02-23-09-00-03;11,0;35,0;100;2,0;3,0;1,0;0,0;row;0,0;True;False;True;0,764999866486;True;0,699000120163
GHA1996m;game;2017-02-23-09-00-03;11,0;36,0;100;3,0;2,0;0,0;1,0;row;0,0;False;True;False;1,39999985695;True;0,531000137329
GHA1996m;game;2017-02-23-09-00-03;11,0;37,0;100;1,0;2,0;3,0;0,0;column;0,0;False;True;False;1,86599993706;True;1,30100011826
GHA1996m;game;2017-02-23-09-00-03;11,0;38,0;100;0,0;3,0;2,0;1,0;column;0,0;True;False;True;2,60100007057;True;0,835999965668
GHA1996m;game;2017-02-23-09-00-03;11,0;39,0;100;1,0;2,0;0,0;3,0;row;0,0;False;True;False;0,765000104904;True;0,568000078201
GHA1996m;game;2017-02-23-09-00-03;11,0;40,0;100;1,0;3,0;0,0;2,0;row;0,0;False;False;False;0,900000095367;True;1,52999997139
GHA1996m;game;2017-02-23-09-00-03;11,0;41,0;100;0,0;1,0;2,0;3,0;row;0,0;False;False;False;1,56599998474;True;1,43700003624
GHA1996m;game;2017-02-23-09-00-03;11,0;42,0;100;3,0;1,0;2,0;0,0;column;0,0;True;False;True;1,43400001526;True;0,529000043869
GHA1996m;game;2017-02-23-09-00-03;11,0;43,0;100;3,0;2,0;0,0;1,0;column;0,0;False;False;False;3,09999990463;True;0,688999891281
GHA1996m;game;2017-02-23-09-00-03;11,0;44,0;100;3,0;1,0;2,0;0,0;column;1,0;False;False;False;1,59999990463;True;0,733999967575
GHA1996m;game;2017-02-23-09-00-03;11,0;45,0;100;1,0;2,0;3,0;0,0;column;1,0;False;False;False;1,56599998474;True;1,2650001049
GHA1996m;game;2017-02-23-09-00-03;11,0;46,0;100;1,0;0,0;3,0;2,0;row;0,0;False;False;False;1,33300018311;True;0,670000076294
GHA1996m;game;2017-02-23-09-00-03;11,0;47,0;100;0,0;2,0;3,0;1,0;row;0,0;True;True;True;0,799999952316;True;0,800000190735
GHA1996m;game;2017-02-23-09-00-03;11,0;48,0;100;3,0;0,0;1,0;2,0;column;1,0;True;False;True;2,26600003242;True;0,871000051498
GHA1996m;game;2017-02-23-09-00-03;12,0;1,0;1000;0,0;2,0;1,0;3,0;column;1,0;False;True;False;1,30099987984;True;1,39100003242
GHA1996m;game;2017-02-23-09-00-03;12,0;2,0;1000;3,0;2,0;1,0;0,0;column;0,0;False;False;False;2,0;True;1,13899993896
GHA1996m;game;2017-02-23-09-00-03;12,0;3,0;1000;1,0;2,0;0,0;3,0;row;0,0;True;False;True;1,73300004005;True;0,703000068665
GHA1996m;game;2017-02-23-09-00-03;12,0;4,0;1000;0,0;2,0;3,0;1,0;row;0,0;False;True;False;1,10000014305;True;1,35599994659
GHA1996m;game;2017-02-23-09-00-03;12,0;5,0;1000;0,0;2,0;1,0;3,0;row;1,0;False;True;False;1,83300018311;True;1,36800003052
GHA1996m;game;2017-02-23-09-00-03;12,0;6,0;1000;2,0;0,0;1,0;3,0;column;1,0;False;True;False;1,66700005531;True;0,921000003815
GHA1996m;game;2017-02-23-09-00-03;12,0;7,0;1000;1,0;3,0;0,0;2,0;column;1,0;False;False;True;1,63300013542;False;1,00300002098
GHA1996m;game;2017-02-23-09-00-03;12,0;8,0;1000;3,0;2,0;1,0;0,0;row;0,0;True;True;True;1,20000004768;True;0,535000085831
GHA1996m;game;2017-02-23-09-00-03;12,0;9,0;1000;3,0;1,0;2,0;0,0;row;0,0;False;True;False;0,899999856949;True;1,09599995613
GHA1996m;game;2017-02-23-09-00-03;12,0;10,0;1000;3,0;2,0;1,0;0,0;column;1,0;False;False;True;1,46600008011;False;1,02600002289
GHA1996m;game;2017-02-23-09-00-03;12,0;11,0;1000;1,0;3,0;2,0;0,0;column;1,0;True;False;True;1,5;True;0,936999797821
GHA1996m;game;2017-02-23-09-00-03;12,0;12,0;1000;0,0;2,0;3,0;1,0;column;0,0;True;False;True;2,23300004005;True;1,07100009918
GHA1996m;game;2017-02-23-09-00-03;12,0;13,0;1000;3,0;1,0;2,0;0,0;row;0,0;True;True;False;1,03299999237;False;1,49699997902
GHA1996m;game;2017-02-23-09-00-03;12,0;14,0;1000;3,0;0,0;2,0;1,0;column;1,0;False;True;False;1,53499984741;True;1,20300006866
GHA1996m;game;2017-02-23-09-00-03;12,0;15,0;1000;1,0;2,0;0,0;3,0;row;1,0;False;False;False;5,0;True;0,803999900818
GHA1996m;game;2017-02-23-09-00-03;12,0;16,0;1000;3,0;0,0;2,0;1,0;column;0,0;False;True;False;1,96700000763;True;1,16999983788
GHA1996m;game;2017-02-23-09-00-03;12,0;17,0;1000;3,0;0,0;2,0;1,0;column;0,0;True;True;True;1,83100008965;True;0,699000120163
GHA1996m;game;2017-02-23-09-00-03;12,0;18,0;1000;1,0;0,0;3,0;2,0;column;1,0;True;False;True;1,26600003242;True;1,12999987602
GHA1996m;game;2017-02-23-09-00-03;12,0;19,0;1000;0,0;2,0;3,0;1,0;row;1,0;False;True;False;2,5;True;1,46099996567
GHA1996m;game;2017-02-23-09-00-03;12,0;20,0;1000;2,0;3,0;0,0;1,0;row;1,0;False;True;False;2,26599979401;True;1,49899983406
GHA1996m;game;2017-02-23-09-00-03;12,0;21,0;1000;3,0;2,0;0,0;1,0;row;1,0;False;False;False;2,06599998474;True;0,625
GHA1996m;game;2017-02-23-09-00-03;12,0;22,0;1000;2,0;3,0;0,0;1,0;column;0,0;True;True;True;2,40000009537;True;0,56500005722
GHA1996m;game;2017-02-23-09-00-03;12,0;23,0;1000;2,0;1,0;0,0;3,0;row;0,0;False;False;False;2,5;True;0,731000185013
GHA1996m;game;2017-02-23-09-00-03;12,0;24,0;1000;0,0;1,0;2,0;3,0;column;1,0;False;False;True;2,03299999237;False;1,29699993134
GHA1996m;game;2017-02-23-09-00-03;12,0;25,0;1000;3,0;0,0;2,0;1,0;row;1,0;True;True;True;2,46600008011;True;1,22499990463
GHA1996m;game;2017-02-23-09-00-03;12,0;26,0;1000;0,0;3,0;1,0;2,0;row;1,0;True;True;True;1,60000014305;True;0,898000001907
GHA1996m;game;2017-02-23-09-00-03;12,0;27,0;1000;1,0;3,0;2,0;0,0;row;1,0;True;False;True;1,70000004768;True;1,36500000954
GHA1996m;game;2017-02-23-09-00-03;12,0;28,0;1000;1,0;2,0;0,0;3,0;column;0,0;True;True;True;1,7990000248;True;1,00099992752
GHA1996m;game;2017-02-23-09-00-03;12,0;29,0;1000;3,0;1,0;2,0;0,0;column;0,0;True;True;False;2,79800009727;False;0,596999883652
GHA1996m;game;2017-02-23-09-00-03;12,0;30,0;1000;2,0;3,0;1,0;0,0;row;1,0;True;True;True;1,33299994469;True;0,532999992371
GHA1996m;game;2017-02-23-09-00-03;12,0;31,0;1000;0,0;2,0;3,0;1,0;column;1,0;False;True;False;2,46700000763;True;1,1320002079
GHA1996m;game;2017-02-23-09-00-03;12,0;32,0;1000;0,0;2,0;1,0;3,0;column;0,0;True;False;True;2,0;True;1,4359998703
GHA1996m;game;2017-02-23-09-00-03;12,0;33,0;1000;1,0;0,0;3,0;2,0;column;1,0;False;True;True;1,43400001526;False;1,26499986649
GHA1996m;game;2017-02-23-09-00-03;12,0;34,0;1000;0,0;1,0;3,0;2,0;row;0,0;False;True;False;1,60000014305;True;1,02499985695
GHA1996m;game;2017-02-23-09-00-03;12,0;35,0;1000;0,0;2,0;1,0;3,0;column;1,0;True;True;True;1,367000103;True;1,29600000381
GHA1996m;game;2017-02-23-09-00-03;12,0;36,0;1000;2,0;0,0;3,0;1,0;column;1,0;True;True;False;1,76600003242;False;1,19299983978
GHA1996m;game;2017-02-23-09-00-03;12,0;37,0;1000;3,0;0,0;2,0;1,0;column;1,0;True;False;True;1,33400011063;True;0,532999992371
GHA1996m;game;2017-02-23-09-00-03;12,0;38,0;1000;3,0;0,0;1,0;2,0;row;0,0;False;True;False;2,00099992752;True;0,996999979019
GHA1996m;game;2017-02-23-09-00-03;12,0;39,0;1000;0,0;1,0;2,0;3,0;row;1,0;False;False;False;2,23299980164;True;1,39899992943
GHA1996m;game;2017-02-23-09-00-03;12,0;40,0;1000;0,0;3,0;2,0;1,0;column;1,0;True;True;True;1,56699991226;True;1,03200006485
GHA1996m;game;2017-02-23-09-00-03;12,0;41,0;1000;0,0;3,0;2,0;1,0;row;0,0;False;True;False;2,23300004005;True;0,761000156403
GHA1996m;game;2017-02-23-09-00-03;12,0;42,0;1000;2,0;3,0;1,0;0,0;column;0,0;False;True;False;1,79999995232;True;0,923000097275
GHA1996m;game;2017-02-23-09-00-03;12,0;43,0;1000;1,0;2,0;3,0;0,0;column;0,0;True;False;True;2,29999995232;True;0,703999996185
GHA1996m;game;2017-02-23-09-00-03;12,0;44,0;1000;1,0;3,0;0,0;2,0;row;0,0;False;False;False;1,80099987984;True;1,26900005341
GHA1996m;game;2017-02-23-09-00-03;12,0;45,0;1000;1,0;2,0;0,0;3,0;column;1,0;True;False;True;1,33299994469;True;1,30099987984
GHA1996m;game;2017-02-23-09-00-03;12,0;46,0;1000;1,0;3,0;2,0;0,0;row;0,0;True;False;True;0,900000095367;True;1,06699991226
GHA1996m;game;2017-02-23-09-00-03;12,0;47,0;1000;0,0;3,0;2,0;1,0;row;1,0;True;False;True;2,0;True;0,769999980927
GHA1996m;game;2017-02-23-09-00-03;12,0;48,0;1000;3,0;0,0;1,0;2,0;column;1,0;False;True;False;1,96600008011;True;1,19000005722
