Observer;Condition;SessionID;Block;Trial;COA;Color0;Color1;Color2;Color3;Target;Which;Match;FlipComplimentary;Response;RT;Correct;OnsetDelay
HMH1987w;game;2017-04-26-12-18-33;1,0;1,0;-100;1,0;3,0;0,0;2,0;row;1,0;True;True;False;20,6289999485;False;0,607000112534
HMH1987w;game;2017-04-26-12-18-33;1,0;2,0;-100;2,0;3,0;1,0;0,0;row;1,0;False;False;False;7,12400007248;True;0,931999921799
HMH1987w;game;2017-04-26-12-18-33;1,0;3,0;-100;3,0;1,0;2,0;0,0;row;1,0;True;True;True;5,08000016212;True;0,860999822617
HMH1987w;game;2017-04-26-12-18-33;1,0;4,0;-100;3,0;0,0;1,0;2,0;row;1,0;False;True;False;4,9470000267;True;0,588999986649
HMH1987w;game;2017-04-26-12-18-33;1,0;5,0;-100;1,0;2,0;0,0;3,0;column;1,0;False;False;False;6,78099989891;True;1,36699986458
HMH1987w;game;2017-04-26-12-18-33;1,0;6,0;-100;2,0;0,0;1,0;3,0;row;0,0;False;False;False;4,86199998856;True;0,532999992371
HMH1987w;game;2017-04-26-12-18-33;1,0;7,0;-100;3,0;1,0;2,0;0,0;row;1,0;False;True;True;7,54600000381;False;1,02399992943
HMH1987w;game;2017-04-26-12-18-33;1,0;8,0;-100;1,0;3,0;0,0;2,0;row;0,0;True;False;True;5,44799995422;True;0,801000118256
HMH1987w;game;2017-04-26-12-18-33;1,0;9,0;-100;0,0;2,0;1,0;3,0;column;1,0;False;True;False;4,9359998703;True;0,898000001907
HMH1987w;game;2017-04-26-12-18-33;1,0;10,0;-100;1,0;2,0;0,0;3,0;row;0,0;False;True;False;3,78799986839;True;1,43499994278
HMH1987w;game;2017-04-26-12-18-33;1,0;11,0;-100;2,0;3,0;1,0;0,0;column;0,0;False;False;False;4,03999996185;True;0,595999956131
HMH1987w;game;2017-04-26-12-18-33;1,0;12,0;-100;0,0;3,0;1,0;2,0;row;1,0;False;True;True;4,89100003242;False;1,09200000763
HMH1987w;game;2017-04-26-12-18-33;1,0;13,0;-100;1,0;0,0;3,0;2,0;column;0,0;False;False;False;4,44899988174;True;0,706999778748
HMH1987w;game;2017-04-26-12-18-33;1,0;14,0;-100;3,0;2,0;1,0;0,0;column;0,0;True;False;True;6,31399989128;True;1,40700006485
HMH1987w;game;2017-04-26-12-18-33;1,0;15,0;-100;2,0;3,0;0,0;1,0;column;0,0;True;True;True;4,6819999218;True;0,805000066757
HMH1987w;game;2017-04-26-12-18-33;1,0;16,0;-100;2,0;0,0;3,0;1,0;column;0,0;False;True;True;2,68499994278;False;0,889000177383
HMH1987w;game;2017-04-26-12-18-33;1,0;17,0;-100;1,0;0,0;3,0;2,0;row;0,0;True;False;True;2,55100011826;True;1,26699995995
HMH1987w;game;2017-04-26-12-18-33;1,0;18,0;-100;2,0;3,0;1,0;0,0;column;0,0;True;True;True;4,09199976921;True;0,602999925613
HMH1987w;game;2017-04-26-12-18-33;1,0;19,0;-100;3,0;0,0;2,0;1,0;row;1,0;False;False;False;7,21700000763;True;1,46199989319
HMH1987w;game;2017-04-26-12-18-33;1,0;20,0;-100;0,0;3,0;1,0;2,0;column;0,0;False;False;False;3,88400006294;True;0,99799990654
HMH1987w;game;2017-04-26-12-18-33;1,0;21,0;-100;0,0;3,0;1,0;2,0;column;1,0;True;False;True;3,98300004005;True;0,525000095367
HMH1987w;game;2017-04-26-12-18-33;1,0;22,0;-100;2,0;3,0;0,0;1,0;column;0,0;False;True;False;2,77900004387;True;1,26600003242
HMH1987w;game;2017-04-26-12-18-33;1,0;23,0;-100;0,0;1,0;2,0;3,0;column;0,0;True;True;False;4,48099994659;False;0,55999994278
HMH1987w;game;2017-04-26-12-18-33;1,0;24,0;-100;0,0;1,0;2,0;3,0;row;0,0;True;False;False;4,81799983978;False;1,27599978447
HMH1987w;game;2017-04-26-12-18-33;1,0;25,0;-100;0,0;3,0;2,0;1,0;column;1,0;True;False;True;4,53200006485;True;1,39800000191
HMH1987w;game;2017-04-26-12-18-33;1,0;26,0;-100;3,0;2,0;1,0;0,0;column;1,0;True;False;False;4,88100004196;False;0,904000043869
HMH1987w;game;2017-04-26-12-18-33;1,0;27,0;-100;0,0;1,0;3,0;2,0;row;1,0;True;True;False;3,14800000191;False;1,19899988174
HMH1987w;game;2017-04-26-12-18-33;1,0;28,0;-100;2,0;0,0;1,0;3,0;column;0,0;False;False;False;6,96999979019;True;1,43000006676
HMH1987w;game;2017-04-26-12-18-33;1,0;29,0;-100;0,0;2,0;3,0;1,0;column;0,0;True;False;True;3,8789999485;True;0,52899980545
HMH1987w;game;2017-04-26-12-18-33;1,0;30,0;-100;3,0;2,0;0,0;1,0;row;1,0;False;True;True;4,91500020027;False;0,801000118256
HMH1987w;game;2017-04-26-12-18-33;1,0;31,0;-100;1,0;3,0;2,0;0,0;column;0,0;False;True;False;4,95000004768;True;1,19099998474
HMH1987w;game;2017-04-26-12-18-33;1,0;32,0;-100;1,0;0,0;3,0;2,0;row;1,0;True;False;False;5,24500012398;False;0,791999816895
HMH1987w;game;2017-04-26-12-18-33;1,0;33,0;-100;3,0;2,0;0,0;1,0;column;1,0;True;True;True;7,61299991608;True;0,555999994278
HMH1987w;game;2017-04-26-12-18-33;1,0;34,0;-100;2,0;0,0;3,0;1,0;row;1,0;True;True;True;3,25100016594;True;1,24500012398
HMH1987w;game;2017-04-26-12-18-33;1,0;35,0;-100;0,0;2,0;3,0;1,0;row;1,0;False;False;False;4,64800000191;True;1,16200017929
HMH1987w;game;2017-04-26-12-18-33;1,0;36,0;-100;0,0;3,0;1,0;2,0;row;0,0;False;True;True;4,5150001049;False;1,16699981689
HMH1987w;game;2017-04-26-12-18-33;1,0;37,0;-100;0,0;1,0;3,0;2,0;row;0,0;False;False;False;4,11599993706;True;0,56600022316
HMH1987w;game;2017-04-26-12-18-33;1,0;38,0;-100;1,0;2,0;0,0;3,0;column;0,0;True;True;False;3,51600003242;False;0,697999954224
HMH1987w;game;2017-04-26-12-18-33;1,0;39,0;-100;1,0;3,0;2,0;0,0;row;1,0;True;True;False;3,01399993896;False;0,571000099182
HMH1987w;game;2017-04-26-12-18-33;1,0;40,0;-100;2,0;1,0;3,0;0,0;column;0,0;True;True;True;8,04099988937;True;0,625
HMH1987w;game;2017-04-26-12-18-33;1,0;41,0;-100;0,0;1,0;3,0;2,0;column;0,0;True;True;True;5,11600017548;True;1,26600003242
HMH1987w;game;2017-04-26-12-18-33;1,0;42,0;-100;3,0;1,0;0,0;2,0;column;1,0;True;False;True;7,34599995613;True;0,897000074387
HMH1987w;game;2017-04-26-12-18-33;1,0;43,0;-100;1,0;2,0;3,0;0,0;column;1,0;True;False;False;3,58200001717;False;0,963000059128
HMH1987w;game;2017-04-26-12-18-33;1,0;44,0;-100;0,0;3,0;1,0;2,0;row;0,0;True;False;False;4,84699988365;False;1,46500015259
HMH1987w;game;2017-04-26-12-18-33;1,0;45,0;-100;3,0;1,0;2,0;0,0;row;0,0;True;True;True;6,68200016022;True;0,930000066757
HMH1987w;game;2017-04-26-12-18-33;1,0;46,0;-100;1,0;3,0;0,0;2,0;row;0,0;False;True;False;1,88399982452;True;0,668999910355
HMH1987w;game;2017-04-26-12-18-33;1,0;47,0;-100;2,0;1,0;0,0;3,0;column;0,0;True;False;False;3,11500000954;False;0,664999961853
HMH1987w;game;2017-04-26-12-18-33;1,0;48,0;-100;0,0;1,0;3,0;2,0;column;0,0;False;False;False;4,80800008774;True;0,928999900818
HMH1987w;game;2017-04-26-12-18-33;2,0;1,0;100;0,0;1,0;3,0;2,0;row;1,0;True;False;True;2,46700000763;True;0,600999832153
HMH1987w;game;2017-04-26-12-18-33;2,0;2,0;100;1,0;0,0;3,0;2,0;column;1,0;True;False;True;3,33099985123;True;1,12599992752
HMH1987w;game;2017-04-26-12-18-33;2,0;3,0;100;3,0;1,0;0,0;2,0;row;1,0;True;True;True;2,39800000191;True;0,828999996185
HMH1987w;game;2017-04-26-12-18-33;2,0;4,0;100;0,0;3,0;2,0;1,0;column;1,0;True;False;True;4,27399992943;True;1,02499985695
HMH1987w;game;2017-04-26-12-18-33;2,0;5,0;100;3,0;1,0;0,0;2,0;column;0,0;False;False;True;4,48000001907;False;1,30900001526
HMH1987w;game;2017-04-26-12-18-33;2,0;6,0;100;2,0;1,0;0,0;3,0;row;0,0;False;True;False;3,59999990463;True;1,4240000248
HMH1987w;game;2017-04-26-12-18-33;2,0;7,0;100;2,0;3,0;0,0;1,0;column;0,0;True;False;True;3,63400006294;True;0,698999881744
HMH1987w;game;2017-04-26-12-18-33;2,0;8,0;100;1,0;3,0;2,0;0,0;row;0,0;True;True;True;2,72699999809;True;0,565999984741
HMH1987w;game;2017-04-26-12-18-33;2,0;9,0;100;2,0;0,0;3,0;1,0;row;1,0;True;False;False;3,19899988174;False;1,14400005341
HMH1987w;game;2017-04-26-12-18-33;2,0;10,0;100;1,0;2,0;0,0;3,0;row;1,0;False;True;False;3,43300008774;True;1,2990000248
HMH1987w;game;2017-04-26-12-18-33;2,0;11,0;100;0,0;2,0;1,0;3,0;row;1,0;False;False;False;2,79799985886;True;0,963000059128
HMH1987w;game;2017-04-26-12-18-33;2,0;12,0;100;2,0;3,0;1,0;0,0;column;1,0;True;False;True;2,33299994469;True;0,663000106812
HMH1987w;game;2017-04-26-12-18-33;2,0;13,0;100;3,0;2,0;1,0;0,0;column;1,0;True;False;True;3,59700012207;True;0,567999839783
HMH1987w;game;2017-04-26-12-18-33;2,0;14,0;100;1,0;0,0;2,0;3,0;row;0,0;False;True;False;2,83200001717;True;0,963000059128
HMH1987w;game;2017-04-26-12-18-33;2,0;15,0;100;1,0;2,0;3,0;0,0;column;1,0;False;True;False;3,36599993706;True;0,871000051498
HMH1987w;game;2017-04-26-12-18-33;2,0;16,0;100;2,0;3,0;1,0;0,0;column;1,0;False;True;False;3,7650001049;True;1,15900015831
HMH1987w;game;2017-04-26-12-18-33;2,0;17,0;100;0,0;3,0;1,0;2,0;column;0,0;True;False;False;3,32999992371;False;1,25699996948
HMH1987w;game;2017-04-26-12-18-33;2,0;18,0;100;0,0;3,0;1,0;2,0;row;0,0;True;True;True;2,46399998665;True;1,16899991035
HMH1987w;game;2017-04-26-12-18-33;2,0;19,0;100;2,0;1,0;3,0;0,0;column;0,0;False;False;False;3,39700007439;True;0,668999910355
HMH1987w;game;2017-04-26-12-18-33;2,0;20,0;100;0,0;1,0;2,0;3,0;row;1,0;False;True;True;1,69899988174;False;0,661999940872
HMH1987w;game;2017-04-26-12-18-33;2,0;21,0;100;3,0;1,0;0,0;2,0;column;0,0;True;False;False;2,69899988174;False;1,49699997902
HMH1987w;game;2017-04-26-12-18-33;2,0;22,0;100;3,0;2,0;0,0;1,0;column;0,0;False;True;False;3,19799995422;True;1,32500004768
HMH1987w;game;2017-04-26-12-18-33;2,0;23,0;100;1,0;3,0;0,0;2,0;row;1,0;False;True;False;4,73199987411;True;1,33299994469
HMH1987w;game;2017-04-26-12-18-33;2,0;24,0;100;3,0;2,0;0,0;1,0;row;1,0;False;False;True;2,16699981689;False;1,32999992371
HMH1987w;game;2017-04-26-12-18-33;2,0;25,0;100;0,0;3,0;2,0;1,0;column;0,0;True;False;True;3,46700000763;True;1,46499991417
HMH1987w;game;2017-04-26-12-18-33;2,0;26,0;100;3,0;0,0;2,0;1,0;column;0,0;True;True;False;2,46700000763;False;1,46100020409
HMH1987w;game;2017-04-26-12-18-33;2,0;27,0;100;2,0;0,0;1,0;3,0;row;1,0;True;False;True;2,70499992371;True;1,47200012207
HMH1987w;game;2017-04-26-12-18-33;2,0;28,0;100;3,0;2,0;0,0;1,0;column;1,0;True;False;True;2,76600003242;True;0,732999801636
HMH1987w;game;2017-04-26-12-18-33;2,0;29,0;100;1,0;2,0;3,0;0,0;row;1,0;True;True;True;3,36299991608;True;0,664999961853
HMH1987w;game;2017-04-26-12-18-33;2,0;30,0;100;1,0;2,0;0,0;3,0;column;1,0;True;True;False;3,73000001907;False;1,06300020218
HMH1987w;game;2017-04-26-12-18-33;2,0;31,0;100;1,0;3,0;0,0;2,0;row;1,0;True;True;True;1,99500012398;True;1,40400004387
HMH1987w;game;2017-04-26-12-18-33;2,0;32,0;100;1,0;0,0;2,0;3,0;row;1,0;True;False;True;1,96600008011;True;0,864000082016
HMH1987w;game;2017-04-26-12-18-33;2,0;33,0;100;1,0;3,0;2,0;0,0;row;1,0;False;False;True;2,26699995995;False;1,33800005913
HMH1987w;game;2017-04-26-12-18-33;2,0;34,0;100;2,0;0,0;1,0;3,0;row;0,0;False;True;True;4,16400003433;False;1,09800004959
HMH1987w;game;2017-04-26-12-18-33;2,0;35,0;100;2,0;0,0;1,0;3,0;row;1,0;False;True;True;3,83100008965;False;0,791000127792
HMH1987w;game;2017-04-26-12-18-33;2,0;36,0;100;1,0;3,0;2,0;0,0;column;1,0;False;True;False;4,60599994659;True;1,50999999046
HMH1987w;game;2017-04-26-12-18-33;2,0;37,0;100;3,0;2,0;1,0;0,0;row;0,0;True;True;False;4,46700000763;False;0,668999910355
HMH1987w;game;2017-04-26-12-18-33;2,0;38,0;100;2,0;1,0;3,0;0,0;row;0,0;True;True;True;2,50199985504;True;1,25800013542
HMH1987w;game;2017-04-26-12-18-33;2,0;39,0;100;2,0;0,0;1,0;3,0;column;0,0;True;False;False;5,2349998951;False;1,3710000515
HMH1987w;game;2017-04-26-12-18-33;2,0;40,0;100;2,0;1,0;0,0;3,0;column;1,0;True;True;False;2,76700019836;False;0,837000131607
HMH1987w;game;2017-04-26-12-18-33;2,0;41,0;100;3,0;2,0;0,0;1,0;column;0,0;True;True;True;3,5;True;0,867000102997
HMH1987w;game;2017-04-26-12-18-33;2,0;42,0;100;0,0;2,0;1,0;3,0;column;0,0;True;False;True;2,06599998474;True;1,0600001812
HMH1987w;game;2017-04-26-12-18-33;2,0;43,0;100;3,0;0,0;2,0;1,0;row;1,0;True;False;False;2,96600008011;False;1,36500000954
HMH1987w;game;2017-04-26-12-18-33;2,0;44,0;100;0,0;1,0;2,0;3,0;row;0,0;True;True;True;2,89999985695;True;0,565999984741
HMH1987w;game;2017-04-26-12-18-33;2,0;45,0;100;0,0;2,0;1,0;3,0;column;1,0;True;False;False;3,70000004768;False;0,767999887466
HMH1987w;game;2017-04-26-12-18-33;2,0;46,0;100;2,0;3,0;1,0;0,0;column;0,0;True;False;True;2,06599998474;True;0,862999916077
HMH1987w;game;2017-04-26-12-18-33;2,0;47,0;100;3,0;1,0;0,0;2,0;row;1,0;False;True;True;3,6970000267;False;0,601000070572
HMH1987w;game;2017-04-26-12-18-33;2,0;48,0;100;0,0;1,0;3,0;2,0;column;1,0;True;True;True;2,5;True;1,33200001717
HMH1987w;game;2017-04-26-12-18-33;3,0;1,0;1000;2,0;1,0;3,0;0,0;row;0,0;False;True;True;1,39999985695;False;0,726999998093
HMH1987w;game;2017-04-26-12-18-33;3,0;2,0;1000;3,0;0,0;1,0;2,0;row;0,0;True;True;False;2,20000004768;False;1,3029999733
HMH1987w;game;2017-04-26-12-18-33;3,0;3,0;1000;3,0;2,0;1,0;0,0;column;0,0;False;False;True;2,132999897;False;0,53200006485
HMH1987w;game;2017-04-26-12-18-33;3,0;4,0;1000;0,0;2,0;3,0;1,0;column;1,0;False;True;False;2,66700005531;True;0,763000011444
HMH1987w;game;2017-04-26-12-18-33;3,0;5,0;1000;2,0;0,0;3,0;1,0;row;0,0;False;False;False;2,6970000267;True;0,968999862671
HMH1987w;game;2017-04-26-12-18-33;3,0;6,0;1000;0,0;1,0;2,0;3,0;column;1,0;False;True;False;5,16300010681;True;0,526000022888
HMH1987w;game;2017-04-26-12-18-33;3,0;7,0;1000;2,0;1,0;0,0;3,0;row;1,0;False;False;True;3,49900007248;False;1,13099980354
HMH1987w;game;2017-04-26-12-18-33;3,0;8,0;1000;0,0;1,0;3,0;2,0;row;1,0;False;False;True;3,2610001564;False;0,876000165939
HMH1987w;game;2017-04-26-12-18-33;3,0;9,0;1000;3,0;2,0;0,0;1,0;row;1,0;True;False;True;2,46700000763;True;1,46600008011
HMH1987w;game;2017-04-26-12-18-33;3,0;10,0;1000;0,0;3,0;1,0;2,0;row;0,0;True;False;True;2,32799983025;True;1,26399993896
HMH1987w;game;2017-04-26-12-18-33;3,0;11,0;1000;0,0;2,0;1,0;3,0;column;1,0;True;False;True;1,7650001049;True;0,823999881744
HMH1987w;game;2017-04-26-12-18-33;3,0;12,0;1000;1,0;2,0;3,0;0,0;row;0,0;True;True;True;4,02999997139;True;0,570000171661
HMH1987w;game;2017-04-26-12-18-33;3,0;13,0;1000;0,0;2,0;1,0;3,0;column;1,0;False;False;False;3,74300003052;True;1,10299992561
HMH1987w;game;2017-04-26-12-18-33;3,0;14,0;1000;2,0;1,0;3,0;0,0;column;0,0;True;True;True;4,6970000267;True;0,799000024796
HMH1987w;game;2017-04-26-12-18-33;3,0;15,0;1000;1,0;2,0;0,0;3,0;column;0,0;True;False;True;3,07500004768;True;1,23500013351
HMH1987w;game;2017-04-26-12-18-33;3,0;16,0;1000;2,0;1,0;3,0;0,0;column;1,0;False;True;False;5,50200009346;True;1,36599993706
HMH1987w;game;2017-04-26-12-18-33;3,0;17,0;1000;3,0;0,0;2,0;1,0;column;0,0;True;False;True;4,06500005722;True;1,23300004005
HMH1987w;game;2017-04-26-12-18-33;3,0;18,0;1000;0,0;2,0;1,0;3,0;row;1,0;False;False;False;3,53199982643;True;1,20300006866
HMH1987w;game;2017-04-26-12-18-33;3,0;19,0;1000;0,0;3,0;2,0;1,0;column;1,0;True;False;True;2,5640001297;True;1,43700003624
HMH1987w;game;2017-04-26-12-18-33;3,0;20,0;1000;3,0;2,0;1,0;0,0;row;0,0;False;False;False;1,59899997711;True;1,13499999046
HMH1987w;game;2017-04-26-12-18-33;3,0;21,0;1000;0,0;2,0;3,0;1,0;column;0,0;False;True;False;1,99699997902;True;0,856999874115
HMH1987w;game;2017-04-26-12-18-33;3,0;22,0;1000;1,0;2,0;0,0;3,0;row;1,0;False;True;False;1,73200011253;True;0,596999883652
HMH1987w;game;2017-04-26-12-18-33;3,0;23,0;1000;0,0;1,0;3,0;2,0;column;1,0;True;True;False;5,00600004196;False;1,03299999237
HMH1987w;game;2017-04-26-12-18-33;3,0;24,0;1000;1,0;3,0;0,0;2,0;column;1,0;False;False;False;1,96700000763;True;1,15799999237
HMH1987w;game;2017-04-26-12-18-33;3,0;25,0;1000;1,0;0,0;2,0;3,0;row;1,0;True;False;True;3,26399993896;True;1,49800014496
HMH1987w;game;2017-04-26-12-18-33;3,0;26,0;1000;3,0;2,0;1,0;0,0;row;0,0;True;True;True;1,46700000763;True;1,43200016022
HMH1987w;game;2017-04-26-12-18-33;3,0;27,0;1000;3,0;0,0;2,0;1,0;row;0,0;True;False;True;1,68499994278;True;1,02899980545
HMH1987w;game;2017-04-26-12-18-33;3,0;28,0;1000;1,0;2,0;3,0;0,0;column;0,0;True;True;False;1,5;False;0,700999975204
HMH1987w;game;2017-04-26-12-18-33;3,0;29,0;1000;1,0;2,0;0,0;3,0;column;1,0;True;False;True;2,26499986649;True;1,00199985504
HMH1987w;game;2017-04-26-12-18-33;3,0;30,0;1000;0,0;3,0;1,0;2,0;row;1,0;True;False;False;4,07499980927;False;1,30399990082
HMH1987w;game;2017-04-26-12-18-33;3,0;31,0;1000;0,0;1,0;2,0;3,0;row;1,0;False;False;False;2,26599979401;True;1,2349998951
HMH1987w;game;2017-04-26-12-18-33;3,0;32,0;1000;2,0;0,0;3,0;1,0;column;1,0;False;True;False;2,73300004005;True;0,589999914169
HMH1987w;game;2017-04-26-12-18-33;3,0;33,0;1000;2,0;3,0;0,0;1,0;column;1,0;False;False;False;3,17299985886;True;0,634999990463
HMH1987w;game;2017-04-26-12-18-33;3,0;34,0;1000;0,0;3,0;2,0;1,0;column;0,0;True;False;True;6,86500000954;True;0,93499994278
HMH1987w;game;2017-04-26-12-18-33;3,0;35,0;1000;3,0;1,0;0,0;2,0;column;0,0;False;True;False;2,89700007439;True;0,993999958038
HMH1987w;game;2017-04-26-12-18-33;3,0;36,0;1000;2,0;1,0;0,0;3,0;column;0,0;False;True;True;2,83399987221;False;1,46399998665
HMH1987w;game;2017-04-26-12-18-33;3,0;37,0;1000;1,0;3,0;2,0;0,0;column;0,0;False;True;False;1,99900007248;True;1,17200016975
HMH1987w;game;2017-04-26-12-18-33;3,0;38,0;1000;3,0;1,0;0,0;2,0;row;0,0;True;False;True;1,54100012779;True;0,766000032425
HMH1987w;game;2017-04-26-12-18-33;3,0;39,0;1000;0,0;2,0;1,0;3,0;row;0,0;False;False;False;2,01099991798;True;0,641999959946
HMH1987w;game;2017-04-26-12-18-33;3,0;40,0;1000;2,0;3,0;1,0;0,0;column;1,0;False;False;False;2,3060002327;True;0,676000118256
HMH1987w;game;2017-04-26-12-18-33;3,0;41,0;1000;0,0;2,0;1,0;3,0;column;0,0;True;True;True;3,67800021172;True;1,23799991608
HMH1987w;game;2017-04-26-12-18-33;3,0;42,0;1000;0,0;3,0;2,0;1,0;row;0,0;False;True;False;1,40500020981;True;1,3029999733
HMH1987w;game;2017-04-26-12-18-33;3,0;43,0;1000;0,0;1,0;2,0;3,0;column;0,0;False;False;False;2,2349998951;True;0,735000133514
HMH1987w;game;2017-04-26-12-18-33;3,0;44,0;1000;3,0;2,0;1,0;0,0;row;1,0;True;True;True;2,07899999619;True;0,860999822617
HMH1987w;game;2017-04-26-12-18-33;3,0;45,0;1000;2,0;3,0;1,0;0,0;column;0,0;False;False;False;3,63800001144;True;0,600000143051
HMH1987w;game;2017-04-26-12-18-33;3,0;46,0;1000;1,0;2,0;3,0;0,0;row;0,0;False;False;False;2,29399991035;True;1,0720000267
HMH1987w;game;2017-04-26-12-18-33;3,0;47,0;1000;3,0;2,0;0,0;1,0;column;0,0;False;True;False;2,49799990654;True;0,646999835968
HMH1987w;game;2017-04-26-12-18-33;3,0;48,0;1000;1,0;3,0;2,0;0,0;column;1,0;False;True;False;3,93600010872;True;0,828000068665
HMH1987w;game;2017-04-26-12-18-33;4,0;1,0;100;3,0;1,0;0,0;2,0;column;1,0;False;True;False;3,2650001049;True;0,84299993515
HMH1987w;game;2017-04-26-12-18-33;4,0;2,0;100;0,0;3,0;2,0;1,0;row;0,0;True;False;True;2,33299994469;True;1,29999995232
HMH1987w;game;2017-04-26-12-18-33;4,0;3,0;100;0,0;2,0;1,0;3,0;row;1,0;True;True;True;2,03300023079;True;0,969999790192
HMH1987w;game;2017-04-26-12-18-33;4,0;4,0;100;0,0;2,0;1,0;3,0;column;0,0;False;False;False;2,83399987221;True;0,799999952316
HMH1987w;game;2017-04-26-12-18-33;4,0;5,0;100;2,0;3,0;0,0;1,0;row;0,0;False;True;False;1,46700000763;True;0,94000005722
HMH1987w;game;2017-04-26-12-18-33;4,0;6,0;100;2,0;1,0;3,0;0,0;row;0,0;False;True;False;1,73300004005;True;1,16499996185
HMH1987w;game;2017-04-26-12-18-33;4,0;7,0;100;0,0;2,0;1,0;3,0;row;0,0;False;False;False;1,96700000763;True;0,861999988556
HMH1987w;game;2017-04-26-12-18-33;4,0;8,0;100;2,0;3,0;1,0;0,0;row;0,0;True;True;True;1,5;True;1,06200003624
HMH1987w;game;2017-04-26-12-18-33;4,0;9,0;100;1,0;3,0;0,0;2,0;row;0,0;True;True;True;1,73300004005;True;0,599999904633
HMH1987w;game;2017-04-26-12-18-33;4,0;10,0;100;3,0;0,0;2,0;1,0;row;0,0;False;True;False;3,63199996948;True;1,2990000248
HMH1987w;game;2017-04-26-12-18-33;4,0;11,0;100;3,0;1,0;2,0;0,0;row;1,0;False;False;True;2,26599979401;False;0,963000059128
HMH1987w;game;2017-04-26-12-18-33;4,0;12,0;100;2,0;0,0;3,0;1,0;column;1,0;True;False;True;5,19400000572;True;1,40999984741
HMH1987w;game;2017-04-26-12-18-33;4,0;13,0;100;3,0;1,0;2,0;0,0;row;0,0;True;False;True;1,16599988937;True;1,50099992752
HMH1987w;game;2017-04-26-12-18-33;4,0;14,0;100;1,0;2,0;0,0;3,0;column;1,0;False;False;False;3,76600003242;True;1,19899988174
HMH1987w;game;2017-04-26-12-18-33;4,0;15,0;100;3,0;2,0;0,0;1,0;row;1,0;True;True;True;2,16700005531;True;0,697000026703
HMH1987w;game;2017-04-26-12-18-33;4,0;16,0;100;2,0;1,0;0,0;3,0;column;0,0;False;False;False;4,26800012589;True;0,735000133514
HMH1987w;game;2017-04-26-12-18-33;4,0;17,0;100;2,0;3,0;1,0;0,0;row;1,0;False;True;False;2,26300001144;True;1,10199999809
HMH1987w;game;2017-04-26-12-18-33;4,0;18,0;100;3,0;2,0;1,0;0,0;column;0,0;False;False;False;2,83000016212;True;1,3639998436
HMH1987w;game;2017-04-26-12-18-33;4,0;19,0;100;0,0;1,0;2,0;3,0;column;0,0;True;True;False;2,40000009537;False;0,628000020981
HMH1987w;game;2017-04-26-12-18-33;4,0;20,0;100;0,0;3,0;2,0;1,0;column;0,0;False;True;True;3,40099978447;False;0,898000001907
HMH1987w;game;2017-04-26-12-18-33;4,0;21,0;100;2,0;3,0;0,0;1,0;column;1,0;False;False;False;1,93299984932;True;0,930999994278
HMH1987w;game;2017-04-26-12-18-33;4,0;22,0;100;2,0;3,0;0,0;1,0;column;1,0;True;True;False;2,79699993134;False;0,867000102997
HMH1987w;game;2017-04-26-12-18-33;4,0;23,0;100;0,0;2,0;3,0;1,0;column;0,0;False;False;False;1,86699986458;True;0,99799990654
HMH1987w;game;2017-04-26-12-18-33;4,0;24,0;100;2,0;0,0;3,0;1,0;row;0,0;True;True;False;3,52799987793;False;0,622000217438
HMH1987w;game;2017-04-26-12-18-33;4,0;25,0;100;3,0;1,0;0,0;2,0;column;1,0;True;True;False;4,09800004959;False;1,12199997902
HMH1987w;game;2017-04-26-12-18-33;4,0;26,0;100;0,0;3,0;1,0;2,0;column;1,0;True;True;False;4,16700005531;False;1,41299986839
HMH1987w;game;2017-04-26-12-18-33;4,0;27,0;100;3,0;0,0;2,0;1,0;column;1,0;True;True;False;2,31599998474;False;1,43799996376
HMH1987w;game;2017-04-26-12-18-33;4,0;28,0;100;1,0;3,0;2,0;0,0;column;1,0;True;False;True;2,50600004196;True;1,46499991417
HMH1987w;game;2017-04-26-12-18-33;4,0;29,0;100;1,0;0,0;2,0;3,0;row;0,0;True;True;True;1,76699995995;True;0,660000085831
HMH1987w;game;2017-04-26-12-18-33;4,0;30,0;100;1,0;3,0;0,0;2,0;column;1,0;True;True;False;5,16600012779;False;1,06900000572
HMH1987w;game;2017-04-26-12-18-33;4,0;31,0;100;1,0;2,0;3,0;0,0;column;0,0;True;True;False;5,24399995804;False;1,2349998951
HMH1987w;game;2017-04-26-12-18-33;4,0;32,0;100;3,0;1,0;2,0;0,0;column;1,0;True;True;True;2,63199996948;True;1,46400022507
HMH1987w;game;2017-04-26-12-18-33;4,0;33,0;100;1,0;3,0;0,0;2,0;column;0,0;True;True;True;4,46300005913;True;0,899999856949
HMH1987w;game;2017-04-26-12-18-33;4,0;34,0;100;1,0;0,0;2,0;3,0;row;1,0;False;False;True;2,79400014877;False;1,1289999485
HMH1987w;game;2017-04-26-12-18-33;4,0;35,0;100;3,0;2,0;1,0;0,0;row;1,0;False;True;False;2,23300004005;True;0,699000120163
HMH1987w;game;2017-04-26-12-18-33;4,0;36,0;100;2,0;3,0;0,0;1,0;column;0,0;False;True;True;3,86400008202;False;1,17100000381
HMH1987w;game;2017-04-26-12-18-33;4,0;37,0;100;2,0;1,0;0,0;3,0;row;1,0;False;True;False;2,632999897;True;0,558000087738
HMH1987w;game;2017-04-26-12-18-33;4,0;38,0;100;3,0;2,0;0,0;1,0;column;1,0;False;False;False;2,30200004578;True;0,656000137329
HMH1987w;game;2017-04-26-12-18-33;4,0;39,0;100;3,0;0,0;2,0;1,0;column;1,0;False;True;False;2,36500000954;True;0,799999952316
HMH1987w;game;2017-04-26-12-18-33;4,0;40,0;100;1,0;2,0;0,0;3,0;column;0,0;True;False;False;3,83200001717;False;0,565999984741
HMH1987w;game;2017-04-26-12-18-33;4,0;41,0;100;1,0;0,0;3,0;2,0;column;0,0;True;True;False;1,76700019836;False;0,596999883652
HMH1987w;game;2017-04-26-12-18-33;4,0;42,0;100;3,0;2,0;0,0;1,0;row;0,0;True;False;True;1,29999995232;True;0,5640001297
HMH1987w;game;2017-04-26-12-18-33;4,0;43,0;100;3,0;0,0;2,0;1,0;row;1,0;False;True;False;1,66599988937;True;0,967000007629
HMH1987w;game;2017-04-26-12-18-33;4,0;44,0;100;0,0;3,0;1,0;2,0;column;1,0;False;True;False;3,29799985886;True;0,938999891281
HMH1987w;game;2017-04-26-12-18-33;4,0;45,0;100;1,0;0,0;3,0;2,0;column;1,0;False;True;False;4,50099992752;True;1,06100010872
HMH1987w;game;2017-04-26-12-18-33;4,0;46,0;100;3,0;0,0;1,0;2,0;column;1,0;True;True;True;1,53099989891;True;1,40199995041
HMH1987w;game;2017-04-26-12-18-33;4,0;47,0;100;1,0;0,0;3,0;2,0;column;0,0;False;True;False;1,53399991989;True;0,861000061035
HMH1987w;game;2017-04-26-12-18-33;4,0;48,0;100;0,0;1,0;2,0;3,0;column;0,0;False;True;False;1,70399999619;True;1,3630001545
HMH1987w;game;2017-04-26-12-18-33;5,0;1,0;1000;3,0;0,0;2,0;1,0;column;1,0;True;False;False;1,83599996567;False;0,560000181198
HMH1987w;game;2017-04-26-12-18-33;5,0;2,0;1000;1,0;2,0;3,0;0,0;row;1,0;True;True;True;1,29999995232;True;0,932000160217
HMH1987w;game;2017-04-26-12-18-33;5,0;3,0;1000;0,0;2,0;3,0;1,0;row;1,0;True;False;True;2,45600008965;True;0,81200003624
HMH1987w;game;2017-04-26-12-18-33;5,0;4,0;1000;3,0;2,0;0,0;1,0;row;1,0;False;False;True;3,73300004005;False;0,833999872208
HMH1987w;game;2017-04-26-12-18-33;5,0;5,0;1000;1,0;2,0;3,0;0,0;column;1,0;True;True;False;3,04099988937;False;0,588999986649
HMH1987w;game;2017-04-26-12-18-33;5,0;6,0;1000;3,0;0,0;1,0;2,0;row;0,0;False;False;False;1,70100021362;True;1,28099989891
HMH1987w;game;2017-04-26-12-18-33;5,0;7,0;1000;1,0;3,0;0,0;2,0;row;0,0;False;False;False;1,7380001545;True;1,47099995613
HMH1987w;game;2017-04-26-12-18-33;5,0;8,0;1000;0,0;1,0;3,0;2,0;column;1,0;False;True;False;2,23600006104;True;0,81200003624
HMH1987w;game;2017-04-26-12-18-33;5,0;9,0;1000;3,0;0,0;1,0;2,0;row;1,0;True;True;True;2,96700000763;True;0,523999929428
HMH1987w;game;2017-04-26-12-18-33;5,0;10,0;1000;1,0;0,0;2,0;3,0;row;0,0;True;False;True;1,93600010872;True;1,17000007629
HMH1987w;game;2017-04-26-12-18-33;5,0;11,0;1000;1,0;2,0;0,0;3,0;row;0,0;True;True;True;1,36599993706;True;0,763999938965
HMH1987w;game;2017-04-26-12-18-33;5,0;12,0;1000;2,0;0,0;3,0;1,0;column;0,0;True;True;True;1,16700005531;True;0,898999929428
HMH1987w;game;2017-04-26-12-18-33;5,0;13,0;1000;3,0;1,0;0,0;2,0;column;0,0;True;False;True;2,06699991226;True;1,49099993706
HMH1987w;game;2017-04-26-12-18-33;5,0;14,0;1000;0,0;3,0;1,0;2,0;row;1,0;False;True;False;1,89900016785;True;0,835999965668
HMH1987w;game;2017-04-26-12-18-33;5,0;15,0;1000;2,0;1,0;0,0;3,0;row;1,0;True;True;True;2,06500005722;True;1,42999982834
HMH1987w;game;2017-04-26-12-18-33;5,0;16,0;1000;3,0;0,0;1,0;2,0;column;1,0;False;True;False;2,46599984169;True;1,29700016975
HMH1987w;game;2017-04-26-12-18-33;5,0;17,0;1000;0,0;1,0;3,0;2,0;row;0,0;True;False;True;1,16499996185;True;0,899999856949
HMH1987w;game;2017-04-26-12-18-33;5,0;18,0;1000;1,0;0,0;3,0;2,0;column;0,0;True;True;False;3,20899987221;False;1,0680000782
HMH1987w;game;2017-04-26-12-18-33;5,0;19,0;1000;3,0;2,0;1,0;0,0;column;1,0;True;False;True;2,99899983406;True;0,994999885559
HMH1987w;game;2017-04-26-12-18-33;5,0;20,0;1000;2,0;1,0;0,0;3,0;column;0,0;True;False;True;3,2990000248;True;0,656999826431
HMH1987w;game;2017-04-26-12-18-33;5,0;21,0;1000;1,0;3,0;0,0;2,0;column;0,0;True;True;False;1,96600008011;False;0,898999929428
HMH1987w;game;2017-04-26-12-18-33;5,0;22,0;1000;1,0;0,0;3,0;2,0;column;0,0;False;True;False;2,63300013542;True;1,12299990654
HMH1987w;game;2017-04-26-12-18-33;5,0;23,0;1000;2,0;3,0;0,0;1,0;row;0,0;True;True;True;1,53200006485;True;1,4279999733
HMH1987w;game;2017-04-26-12-18-33;5,0;24,0;1000;2,0;3,0;1,0;0,0;row;0,0;True;True;True;1,39800000191;True;0,52999997139
HMH1987w;game;2017-04-26-12-18-33;5,0;25,0;1000;1,0;0,0;3,0;2,0;row;1,0;False;False;False;3,86599993706;True;0,964999914169
HMH1987w;game;2017-04-26-12-18-33;5,0;26,0;1000;1,0;2,0;0,0;3,0;row;1,0;True;True;True;1,76699995995;True;0,799999952316
HMH1987w;game;2017-04-26-12-18-33;5,0;27,0;1000;3,0;1,0;2,0;0,0;column;1,0;False;True;False;3,02900004387;True;1,38800001144
HMH1987w;game;2017-04-26-12-18-33;5,0;28,0;1000;1,0;0,0;2,0;3,0;column;0,0;True;True;False;3,69899988174;False;0,832999944687
HMH1987w;game;2017-04-26-12-18-33;5,0;29,0;1000;1,0;2,0;0,0;3,0;row;0,0;False;True;False;2,17600011826;True;1,16700005531
HMH1987w;game;2017-04-26-12-18-33;5,0;30,0;1000;3,0;1,0;2,0;0,0;row;1,0;True;True;True;1,56599998474;True;1,23200011253
HMH1987w;game;2017-04-26-12-18-33;5,0;31,0;1000;1,0;0,0;2,0;3,0;column;1,0;False;False;True;2,40000009537;False;1,49599981308
HMH1987w;game;2017-04-26-12-18-33;5,0;32,0;1000;3,0;1,0;2,0;0,0;row;0,0;False;True;False;1,46599984169;True;0,936000108719
HMH1987w;game;2017-04-26-12-18-33;5,0;33,0;1000;2,0;1,0;0,0;3,0;row;0,0;True;True;True;1,33099985123;True;0,832000017166
HMH1987w;game;2017-04-26-12-18-33;5,0;34,0;1000;1,0;2,0;3,0;0,0;column;0,0;False;False;False;3,66600012779;True;1,26999998093
HMH1987w;game;2017-04-26-12-18-33;5,0;35,0;1000;2,0;0,0;1,0;3,0;row;1,0;False;False;False;1,69999980927;True;1,49800014496
HMH1987w;game;2017-04-26-12-18-33;5,0;36,0;1000;1,0;0,0;3,0;2,0;row;1,0;True;True;True;1,13300013542;True;0,928999900818
HMH1987w;game;2017-04-26-12-18-33;5,0;37,0;1000;2,0;0,0;1,0;3,0;column;1,0;True;True;False;2,50300002098;False;0,631000041962
HMH1987w;game;2017-04-26-12-18-33;5,0;38,0;1000;2,0;0,0;3,0;1,0;row;0,0;True;False;True;1,30099987984;True;0,674999952316
HMH1987w;game;2017-04-26-12-18-33;5,0;39,0;1000;2,0;0,0;1,0;3,0;row;0,0;False;True;False;1,46500015259;True;1,0640001297
HMH1987w;game;2017-04-26-12-18-33;5,0;40,0;1000;3,0;2,0;0,0;1,0;row;0,0;True;True;True;1,20799994469;True;1,09999990463
HMH1987w;game;2017-04-26-12-18-33;5,0;41,0;1000;3,0;1,0;2,0;0,0;row;0,0;True;False;True;1,35000014305;True;1,40400004387
HMH1987w;game;2017-04-26-12-18-33;5,0;42,0;1000;1,0;3,0;2,0;0,0;row;0,0;False;False;False;1,73000001907;True;0,631999969482
HMH1987w;game;2017-04-26-12-18-33;5,0;43,0;1000;2,0;0,0;1,0;3,0;row;0,0;True;True;True;1,20000004768;True;0,663999795914
HMH1987w;game;2017-04-26-12-18-33;5,0;44,0;1000;3,0;2,0;1,0;0,0;column;0,0;True;True;False;5,76699995995;False;1,26600003242
HMH1987w;game;2017-04-26-12-18-33;5,0;45,0;1000;0,0;1,0;3,0;2,0;row;1,0;True;True;True;1,39900016785;True;0,866000175476
HMH1987w;game;2017-04-26-12-18-33;5,0;46,0;1000;3,0;0,0;1,0;2,0;column;1,0;True;False;False;2,6130001545;False;1,20200014114
HMH1987w;game;2017-04-26-12-18-33;5,0;47,0;1000;2,0;3,0;0,0;1,0;column;0,0;True;False;True;3,21499991417;True;0,901000022888
HMH1987w;game;2017-04-26-12-18-33;5,0;48,0;1000;1,0;3,0;2,0;0,0;row;0,0;True;True;False;2,84599995613;False;1,42899990082
HMH1987w;game;2017-04-26-12-18-33;6,0;1,0;-100;0,0;2,0;1,0;3,0;row;1,0;True;True;False;3,58299994469;False;0,595999956131
HMH1987w;game;2017-04-26-12-18-33;6,0;2,0;-100;1,0;3,0;0,0;2,0;row;1,0;False;False;True;2,94899988174;False;0,631999969482
HMH1987w;game;2017-04-26-12-18-33;6,0;3,0;-100;0,0;1,0;3,0;2,0;row;1,0;False;False;False;2,98099994659;True;1,32800006866
HMH1987w;game;2017-04-26-12-18-33;6,0;4,0;-100;2,0;0,0;1,0;3,0;column;1,0;True;True;True;1,81700015068;True;1,33500003815
HMH1987w;game;2017-04-26-12-18-33;6,0;5,0;-100;0,0;1,0;3,0;2,0;column;1,0;True;True;False;2,51399993896;False;0,97100019455
HMH1987w;game;2017-04-26-12-18-33;6,0;6,0;-100;0,0;2,0;1,0;3,0;row;0,0;True;False;True;1,45899987221;True;1,36899995804
HMH1987w;game;2017-04-26-12-18-33;6,0;7,0;-100;3,0;1,0;0,0;2,0;row;1,0;True;True;False;1,75;False;0,727999925613
HMH1987w;game;2017-04-26-12-18-33;6,0;8,0;-100;3,0;0,0;2,0;1,0;column;1,0;True;False;False;2,69599986076;False;0,571999788284
HMH1987w;game;2017-04-26-12-18-33;6,0;9,0;-100;2,0;1,0;0,0;3,0;row;0,0;False;False;False;2,38700008392;True;0,96799993515
HMH1987w;game;2017-04-26-12-18-33;6,0;10,0;-100;1,0;0,0;2,0;3,0;row;1,0;True;False;True;1,92000007629;True;1,12699985504
HMH1987w;game;2017-04-26-12-18-33;6,0;11,0;-100;3,0;0,0;2,0;1,0;row;0,0;False;True;False;1,48600006104;True;1,1369998455
HMH1987w;game;2017-04-26-12-18-33;6,0;12,0;-100;3,0;0,0;2,0;1,0;row;1,0;True;True;True;1,91400003433;True;0,598000049591
HMH1987w;game;2017-04-26-12-18-33;6,0;13,0;-100;2,0;1,0;0,0;3,0;column;1,0;False;True;False;4,41999983788;True;0,768999814987
HMH1987w;game;2017-04-26-12-18-33;6,0;14,0;-100;0,0;1,0;3,0;2,0;column;1,0;False;False;False;2,84999990463;True;0,536000013351
HMH1987w;game;2017-04-26-12-18-33;6,0;15,0;-100;3,0;2,0;1,0;0,0;row;1,0;True;True;True;2,08599996567;True;1,33599996567
HMH1987w;game;2017-04-26-12-18-33;6,0;16,0;-100;2,0;0,0;3,0;1,0;row;0,0;False;False;False;1,94799995422;True;0,537999868393
HMH1987w;game;2017-04-26-12-18-33;6,0;17,0;-100;2,0;3,0;0,0;1,0;row;0,0;False;True;False;1,88599991798;True;1,17700004578
HMH1987w;game;2017-04-26-12-18-33;6,0;18,0;-100;3,0;1,0;2,0;0,0;column;0,0;True;True;False;6,64700007439;False;1,1210000515
HMH1987w;game;2017-04-26-12-18-33;6,0;19,0;-100;3,0;2,0;1,0;0,0;row;0,0;False;False;False;1,91400003433;True;0,964999914169
HMH1987w;game;2017-04-26-12-18-33;6,0;20,0;-100;2,0;3,0;0,0;1,0;row;0,0;True;True;False;0,982000112534;False;0,628000020981
HMH1987w;game;2017-04-26-12-18-33;6,0;21,0;-100;1,0;2,0;0,0;3,0;column;0,0;False;True;False;1,67999982834;True;0,760999917984
HMH1987w;game;2017-04-26-12-18-33;6,0;22,0;-100;1,0;2,0;3,0;0,0;row;0,0;False;False;False;1,71399998665;True;0,866999864578
HMH1987w;game;2017-04-26-12-18-33;6,0;23,0;-100;2,0;1,0;3,0;0,0;row;0,0;False;True;False;0,983999967575;True;1,06999993324
HMH1987w;game;2017-04-26-12-18-33;6,0;24,0;-100;2,0;3,0;0,0;1,0;row;1,0;True;True;False;2,91499996185;False;1,19600009918
HMH1987w;game;2017-04-26-12-18-33;6,0;25,0;-100;3,0;2,0;1,0;0,0;row;0,0;True;False;True;1,31299996376;True;0,692999839783
HMH1987w;game;2017-04-26-12-18-33;6,0;26,0;-100;1,0;2,0;0,0;3,0;row;1,0;False;True;False;2,55000019073;True;1,3029999733
HMH1987w;game;2017-04-26-12-18-33;6,0;27,0;-100;2,0;0,0;1,0;3,0;column;0,0;True;False;False;2,78299999237;False;1,29799985886
HMH1987w;game;2017-04-26-12-18-33;6,0;28,0;-100;2,0;1,0;0,0;3,0;column;1,0;True;True;False;2,54899978638;False;1,23200011253
HMH1987w;game;2017-04-26-12-18-33;6,0;29,0;-100;2,0;3,0;1,0;0,0;row;1,0;True;True;True;2,71300005913;True;0,901000022888
HMH1987w;game;2017-04-26-12-18-33;6,0;30,0;-100;2,0;1,0;0,0;3,0;row;1,0;True;True;True;1,41499996185;True;1,13999986649
HMH1987w;game;2017-04-26-12-18-33;6,0;31,0;-100;0,0;2,0;1,0;3,0;row;0,0;False;True;False;2,44899988174;True;0,735000133514
HMH1987w;game;2017-04-26-12-18-33;6,0;32,0;-100;2,0;0,0;3,0;1,0;column;0,0;True;False;True;3,28299999237;True;1,12999987602
HMH1987w;game;2017-04-26-12-18-33;6,0;33,0;-100;2,0;1,0;3,0;0,0;row;1,0;True;False;True;2,3029999733;True;0,574000120163
HMH1987w;game;2017-04-26-12-18-33;6,0;34,0;-100;1,0;0,0;2,0;3,0;column;1,0;False;False;False;1,91700005531;True;0,833999872208
HMH1987w;game;2017-04-26-12-18-33;6,0;35,0;-100;1,0;2,0;0,0;3,0;row;0,0;True;True;True;1,34700012207;True;1,03399991989
HMH1987w;game;2017-04-26-12-18-33;6,0;36,0;-100;0,0;2,0;3,0;1,0;row;1,0;True;False;False;3,58500003815;False;0,671999931335
HMH1987w;game;2017-04-26-12-18-33;6,0;37,0;-100;1,0;2,0;0,0;3,0;column;1,0;True;False;False;3,5150001049;False;1,50099992752
HMH1987w;game;2017-04-26-12-18-33;6,0;38,0;-100;2,0;3,0;1,0;0,0;column;1,0;True;True;False;1,68300008774;False;0,831000089645
HMH1987w;game;2017-04-26-12-18-33;6,0;39,0;-100;0,0;3,0;2,0;1,0;column;1,0;False;True;False;3,34800004959;True;0,980000019073
HMH1987w;game;2017-04-26-12-18-33;6,0;40,0;-100;0,0;2,0;1,0;3,0;column;1,0;True;False;False;1,91400003433;False;1,15799999237
HMH1987w;game;2017-04-26-12-18-33;6,0;41,0;-100;3,0;0,0;2,0;1,0;column;0,0;True;False;True;2,94400000572;True;0,823999881744
HMH1987w;game;2017-04-26-12-18-33;6,0;42,0;-100;0,0;2,0;3,0;1,0;row;0,0;True;False;True;1,81599998474;True;1,39899992943
HMH1987w;game;2017-04-26-12-18-33;6,0;43,0;-100;2,0;1,0;3,0;0,0;column;1,0;False;False;False;1,71600008011;True;1,30399990082
HMH1987w;game;2017-04-26-12-18-33;6,0;44,0;-100;1,0;0,0;3,0;2,0;column;1,0;False;True;False;3,0490000248;True;1,43299984932
HMH1987w;game;2017-04-26-12-18-33;6,0;45,0;-100;3,0;0,0;1,0;2,0;column;1,0;True;True;True;4,01699995995;True;1,19599986076
HMH1987w;game;2017-04-26-12-18-33;6,0;46,0;-100;1,0;0,0;2,0;3,0;column;0,0;True;False;False;5,41200017929;False;0,626000165939
HMH1987w;game;2017-04-26-12-18-33;6,0;47,0;-100;3,0;2,0;0,0;1,0;row;0,0;False;True;False;1,78200006485;True;1,39900016785
HMH1987w;game;2017-04-26-12-18-33;6,0;48,0;-100;1,0;0,0;3,0;2,0;column;1,0;True;True;True;1,85699987411;True;1,23200011253
HMH1987w;game;2017-04-26-12-18-33;7,0;1,0;-100;3,0;1,0;0,0;2,0;column;0,0;False;False;False;3,8789999485;True;0,817000150681
HMH1987w;game;2017-04-26-12-18-33;7,0;2,0;-100;3,0;2,0;1,0;0,0;column;0,0;False;False;False;2,6859998703;True;1,21099996567
HMH1987w;game;2017-04-26-12-18-33;7,0;3,0;-100;0,0;2,0;1,0;3,0;column;0,0;False;False;False;1,54800009727;True;1,19899988174
HMH1987w;game;2017-04-26-12-18-33;7,0;4,0;-100;3,0;0,0;2,0;1,0;column;0,0;False;False;False;1,8180000782;True;1,0649998188
HMH1987w;game;2017-04-26-12-18-33;7,0;5,0;-100;2,0;3,0;1,0;0,0;row;0,0;True;True;True;1,69499993324;True;1,23199987411
HMH1987w;game;2017-04-26-12-18-33;7,0;6,0;-100;2,0;0,0;1,0;3,0;row;0,0;True;False;True;2,382999897;True;0,6890001297
HMH1987w;game;2017-04-26-12-18-33;7,0;7,0;-100;2,0;1,0;0,0;3,0;row;1,0;False;True;True;1,71799993515;False;1,29299998283
HMH1987w;game;2017-04-26-12-18-33;7,0;8,0;-100;1,0;2,0;3,0;0,0;column;0,0;False;True;False;3,31700015068;True;0,899999856949
HMH1987w;game;2017-04-26-12-18-33;7,0;9,0;-100;3,0;2,0;0,0;1,0;row;1,0;True;False;True;1,61500000954;True;1,46799993515
HMH1987w;game;2017-04-26-12-18-33;7,0;10,0;-100;2,0;3,0;0,0;1,0;column;1,0;True;False;False;1,88400006294;False;0,56500005722
HMH1987w;game;2017-04-26-12-18-33;7,0;11,0;-100;3,0;2,0;1,0;0,0;row;1,0;False;True;False;2,05000019073;True;1,26300001144
HMH1987w;game;2017-04-26-12-18-33;7,0;12,0;-100;1,0;0,0;2,0;3,0;column;0,0;False;True;False;2,21700000763;True;0,759000062943
HMH1987w;game;2017-04-26-12-18-33;7,0;13,0;-100;2,0;0,0;3,0;1,0;column;1,0;False;True;False;2,12299990654;True;1,07500004768
HMH1987w;game;2017-04-26-12-18-33;7,0;14,0;-100;2,0;0,0;1,0;3,0;column;1,0;False;True;True;2,81399989128;False;1,50099992752
HMH1987w;game;2017-04-26-12-18-33;7,0;15,0;-100;2,0;3,0;1,0;0,0;column;1,0;False;True;False;3,31699991226;True;1,50099992752
HMH1987w;game;2017-04-26-12-18-33;7,0;16,0;-100;0,0;3,0;1,0;2,0;column;0,0;True;False;False;3,53199982643;False;1,38899993896
HMH1987w;game;2017-04-26-12-18-33;7,0;17,0;-100;3,0;0,0;1,0;2,0;row;1,0;True;False;True;2,382999897;True;1,10000014305
HMH1987w;game;2017-04-26-12-18-33;7,0;18,0;-100;3,0;2,0;0,0;1,0;row;0,0;True;True;True;1,55100011826;True;1,46900010109
HMH1987w;game;2017-04-26-12-18-33;7,0;19,0;-100;3,0;1,0;2,0;0,0;column;1,0;False;False;True;3,71499991417;False;1,33599996567
HMH1987w;game;2017-04-26-12-18-33;7,0;20,0;-100;1,0;2,0;3,0;0,0;column;1,0;False;False;False;2,84500002861;True;0,764999866486
HMH1987w;game;2017-04-26-12-18-33;7,0;21,0;-100;2,0;1,0;3,0;0,0;row;0,0;True;False;True;1,32699990273;True;0,929999828339
HMH1987w;game;2017-04-26-12-18-33;7,0;22,0;-100;0,0;1,0;2,0;3,0;column;0,0;False;False;False;3,63599991798;True;1,40299987793
HMH1987w;game;2017-04-26-12-18-33;7,0;23,0;-100;3,0;2,0;0,0;1,0;column;0,0;True;False;True;3,73000001907;True;1,03200006485
HMH1987w;game;2017-04-26-12-18-33;7,0;24,0;-100;3,0;1,0;2,0;0,0;column;1,0;True;True;True;3,625;True;1,21000003815
HMH1987w;game;2017-04-26-12-18-33;7,0;25,0;-100;2,0;1,0;3,0;0,0;column;0,0;False;False;False;3,94200015068;True;1,14199995995
HMH1987w;game;2017-04-26-12-18-33;7,0;26,0;-100;3,0;1,0;0,0;2,0;row;0,0;False;False;False;1,4279999733;True;1,23599982262
HMH1987w;game;2017-04-26-12-18-33;7,0;27,0;-100;3,0;1,0;0,0;2,0;column;0,0;True;False;False;2,41599988937;False;0,668999910355
HMH1987w;game;2017-04-26-12-18-33;7,0;28,0;-100;0,0;3,0;2,0;1,0;row;1,0;False;True;False;2,31599998474;True;1,29399991035
HMH1987w;game;2017-04-26-12-18-33;7,0;29,0;-100;3,0;1,0;0,0;2,0;row;1,0;False;False;False;2,15000009537;True;0,857000112534
HMH1987w;game;2017-04-26-12-18-33;7,0;30,0;-100;2,0;0,0;3,0;1,0;column;1,0;True;False;True;2,04799985886;True;1,09300017357
HMH1987w;game;2017-04-26-12-18-33;7,0;31,0;-100;3,0;2,0;0,0;1,0;column;0,0;False;False;False;2,68799996376;True;1,13499999046
HMH1987w;game;2017-04-26-12-18-33;7,0;32,0;-100;2,0;1,0;3,0;0,0;row;1,0;False;False;True;2,38400006294;False;1,20199990273
HMH1987w;game;2017-04-26-12-18-33;7,0;33,0;-100;2,0;3,0;1,0;0,0;row;0,0;False;False;False;2,84999990463;True;0,799999952316
HMH1987w;game;2017-04-26-12-18-33;7,0;34,0;-100;0,0;1,0;2,0;3,0;row;1,0;True;True;True;2,15100002289;True;1,0
HMH1987w;game;2017-04-26-12-18-33;7,0;35,0;-100;3,0;0,0;2,0;1,0;column;1,0;False;False;False;1,41499996185;True;0,578000068665
HMH1987w;game;2017-04-26-12-18-33;7,0;36,0;-100;0,0;2,0;3,0;1,0;row;0,0;False;False;False;2,04699993134;True;0,695999860764
HMH1987w;game;2017-04-26-12-18-33;7,0;37,0;-100;1,0;0,0;2,0;3,0;column;1,0;True;True;False;2,11699986458;False;1,52100014687
HMH1987w;game;2017-04-26-12-18-33;7,0;38,0;-100;1,0;0,0;3,0;2,0;row;0,0;False;True;False;1,18400001526;True;1,39999985695
HMH1987w;game;2017-04-26-12-18-33;7,0;39,0;-100;1,0;3,0;0,0;2,0;column;0,0;False;True;False;3,14400005341;True;0,572000026703
HMH1987w;game;2017-04-26-12-18-33;7,0;40,0;-100;1,0;3,0;2,0;0,0;row;1,0;False;True;False;1,77999997139;True;0,723999977112
HMH1987w;game;2017-04-26-12-18-33;7,0;41,0;-100;2,0;1,0;0,0;3,0;row;0,0;True;True;True;1,51699995995;True;1,1970000267
HMH1987w;game;2017-04-26-12-18-33;7,0;42,0;-100;1,0;0,0;2,0;3,0;row;0,0;True;False;True;1,94900012016;True;0,831000089645
HMH1987w;game;2017-04-26-12-18-33;7,0;43,0;-100;0,0;1,0;2,0;3,0;row;1,0;False;True;False;2,77900004387;True;1,1970000267
HMH1987w;game;2017-04-26-12-18-33;7,0;44,0;-100;1,0;3,0;2,0;0,0;row;0,0;True;True;False;1,85000014305;False;0,828999996185
HMH1987w;game;2017-04-26-12-18-33;7,0;45,0;-100;1,0;2,0;0,0;3,0;row;1,0;True;False;True;1,84800004959;True;1,03299999237
HMH1987w;game;2017-04-26-12-18-33;7,0;46,0;-100;2,0;0,0;3,0;1,0;row;1,0;False;True;False;5,79600000381;True;0,802999973297
HMH1987w;game;2017-04-26-12-18-33;7,0;47,0;-100;0,0;1,0;2,0;3,0;column;1,0;True;True;True;2,74799990654;True;0,864000082016
HMH1987w;game;2017-04-26-12-18-33;7,0;48,0;-100;1,0;2,0;3,0;0,0;row;1,0;False;False;False;2,34999990463;True;0,697999954224
HMH1987w;game;2017-04-26-12-18-33;8,0;1,0;1000;1,0;3,0;0,0;2,0;column;0,0;False;False;False;3,83299994469;True;1,00200009346
HMH1987w;game;2017-04-26-12-18-33;8,0;2,0;1000;3,0;1,0;2,0;0,0;column;0,0;False;False;False;2,59899997711;True;1,33100008965
HMH1987w;game;2017-04-26-12-18-33;8,0;3,0;1000;1,0;0,0;2,0;3,0;column;1,0;True;True;True;2,16799998283;True;1,26900005341
HMH1987w;game;2017-04-26-12-18-33;8,0;4,0;1000;2,0;0,0;1,0;3,0;column;0,0;False;True;False;2,99799990654;True;0,53200006485
HMH1987w;game;2017-04-26-12-18-33;8,0;5,0;1000;1,0;0,0;3,0;2,0;row;0,0;True;True;True;1,44400000572;True;1,40900015831
HMH1987w;game;2017-04-26-12-18-33;8,0;6,0;1000;1,0;0,0;3,0;2,0;row;0,0;False;True;False;1,1970000267;True;0,565999984741
HMH1987w;game;2017-04-26-12-18-33;8,0;7,0;1000;1,0;0,0;2,0;3,0;row;0,0;False;True;False;3,12400007248;True;1,49599981308
HMH1987w;game;2017-04-26-12-18-33;8,0;8,0;1000;0,0;1,0;2,0;3,0;column;1,0;True;True;True;2,62400007248;True;0,928000211716
HMH1987w;game;2017-04-26-12-18-33;8,0;9,0;1000;3,0;2,0;1,0;0,0;column;1,0;False;False;False;3,50099992752;True;0,621999979019
HMH1987w;game;2017-04-26-12-18-33;8,0;10,0;1000;3,0;1,0;2,0;0,0;row;1,0;False;True;False;4,04600000381;True;1,03199982643
HMH1987w;game;2017-04-26-12-18-33;8,0;11,0;1000;3,0;0,0;2,0;1,0;row;1,0;False;False;False;1,49800014496;True;1,46300005913
HMH1987w;game;2017-04-26-12-18-33;8,0;12,0;1000;2,0;0,0;3,0;1,0;column;1,0;True;False;True;1,96600008011;True;1,23600006104
HMH1987w;game;2017-04-26-12-18-33;8,0;13,0;1000;2,0;0,0;3,0;1,0;column;0,0;False;False;False;4,49899983406;True;1,49699997902
HMH1987w;game;2017-04-26-12-18-33;8,0;14,0;1000;2,0;1,0;0,0;3,0;row;0,0;False;True;False;1,13100004196;True;0,759999990463
HMH1987w;game;2017-04-26-12-18-33;8,0;15,0;1000;0,0;2,0;1,0;3,0;row;1,0;True;False;True;2,42700004578;True;1,29699993134
HMH1987w;game;2017-04-26-12-18-33;8,0;16,0;1000;3,0;2,0;0,0;1,0;column;1,0;True;False;False;3,5759999752;False;0,93499994278
HMH1987w;game;2017-04-26-12-18-33;8,0;17,0;1000;0,0;3,0;1,0;2,0;column;0,0;True;True;False;3,04300022125;False;1,46500015259
HMH1987w;game;2017-04-26-12-18-33;8,0;18,0;1000;1,0;2,0;0,0;3,0;column;0,0;False;True;False;3,53299999237;True;1,10000014305
HMH1987w;game;2017-04-26-12-18-33;8,0;19,0;1000;0,0;1,0;2,0;3,0;row;0,0;True;True;False;1,76700019836;False;1,29600000381
HMH1987w;game;2017-04-26-12-18-33;8,0;20,0;1000;3,0;0,0;1,0;2,0;row;1,0;False;True;True;1,8789999485;False;0,96799993515
HMH1987w;game;2017-04-26-12-18-33;8,0;21,0;1000;1,0;3,0;2,0;0,0;row;1,0;True;False;False;2,54699993134;False;0,960999965668
HMH1987w;game;2017-04-26-12-18-33;8,0;22,0;1000;3,0;1,0;0,0;2,0;row;0,0;False;False;False;1,61100006104;True;1,0680000782
HMH1987w;game;2017-04-26-12-18-33;8,0;23,0;1000;2,0;3,0;1,0;0,0;row;1,0;False;False;True;1,7619998455;False;1,25699996948
HMH1987w;game;2017-04-26-12-18-33;8,0;24,0;1000;2,0;3,0;1,0;0,0;column;1,0;True;False;True;4,41499996185;True;0,602999925613
HMH1987w;game;2017-04-26-12-18-33;8,0;25,0;1000;1,0;3,0;0,0;2,0;row;1,0;False;False;False;3,10699987411;True;0,805000066757
HMH1987w;game;2017-04-26-12-18-33;8,0;26,0;1000;1,0;2,0;3,0;0,0;row;1,0;False;True;False;1,3710000515;True;1,14300012589
HMH1987w;game;2017-04-26-12-18-33;8,0;27,0;1000;3,0;1,0;0,0;2,0;row;1,0;True;True;True;1,132999897;True;1,33400011063
HMH1987w;game;2017-04-26-12-18-33;8,0;28,0;1000;0,0;1,0;2,0;3,0;column;0,0;True;True;False;3,27500009537;False;0,530999898911
HMH1987w;game;2017-04-26-12-18-33;8,0;29,0;1000;1,0;3,0;0,0;2,0;column;1,0;True;False;True;2,2990000248;True;0,520999908447
HMH1987w;game;2017-04-26-12-18-33;8,0;30,0;1000;2,0;1,0;0,0;3,0;column;1,0;True;False;False;2,507999897;False;0,668999910355
HMH1987w;game;2017-04-26-12-18-33;8,0;31,0;1000;3,0;0,0;2,0;1,0;row;0,0;False;True;False;1,20300006866;True;1,23000001907
HMH1987w;game;2017-04-26-12-18-33;8,0;32,0;1000;0,0;2,0;3,0;1,0;row;0,0;False;True;False;1,26999998093;True;0,727999925613
HMH1987w;game;2017-04-26-12-18-33;8,0;33,0;1000;3,0;0,0;2,0;1,0;column;0,0;False;True;False;2,6179997921;True;0,913000106812
HMH1987w;game;2017-04-26-12-18-33;8,0;34,0;1000;2,0;0,0;1,0;3,0;column;0,0;True;True;True;3,3029999733;True;0,798000097275
HMH1987w;game;2017-04-26-12-18-33;8,0;35,0;1000;3,0;0,0;1,0;2,0;column;0,0;True;False;False;2,47099995613;False;1,46700000763
HMH1987w;game;2017-04-26-12-18-33;8,0;36,0;1000;1,0;3,0;0,0;2,0;row;1,0;True;False;True;3,26499986649;True;1,46700000763
HMH1987w;game;2017-04-26-12-18-33;8,0;37,0;1000;0,0;2,0;1,0;3,0;row;0,0;True;True;True;1,23300004005;True;0,858000040054
HMH1987w;game;2017-04-26-12-18-33;8,0;38,0;1000;3,0;0,0;2,0;1,0;column;1,0;False;True;False;2,02900004387;True;1,29800009727
HMH1987w;game;2017-04-26-12-18-33;8,0;39,0;1000;1,0;0,0;2,0;3,0;row;1,0;False;True;False;1,96499991417;True;1,27399992943
HMH1987w;game;2017-04-26-12-18-33;8,0;40,0;1000;3,0;0,0;2,0;1,0;row;1,0;True;True;True;1,29999995232;True;0,792000055313
HMH1987w;game;2017-04-26-12-18-33;8,0;41,0;1000;3,0;2,0;0,0;1,0;column;0,0;True;True;True;2,73199987411;True;0,664999961853
HMH1987w;game;2017-04-26-12-18-33;8,0;42,0;1000;2,0;0,0;1,0;3,0;column;1,0;False;True;False;3,03699994087;True;0,803000211716
HMH1987w;game;2017-04-26-12-18-33;8,0;43,0;1000;2,0;3,0;0,0;1,0;row;1,0;False;True;False;2,0529999733;True;1,02600002289
HMH1987w;game;2017-04-26-12-18-33;8,0;44,0;1000;2,0;3,0;0,0;1,0;column;0,0;False;False;False;1,58500003815;True;0,537999868393
HMH1987w;game;2017-04-26-12-18-33;8,0;45,0;1000;1,0;3,0;2,0;0,0;row;1,0;False;False;False;1,36599993706;True;0,737999916077
HMH1987w;game;2017-04-26-12-18-33;8,0;46,0;1000;3,0;1,0;2,0;0,0;column;0,0;True;False;False;3,29600000381;False;0,764000177383
HMH1987w;game;2017-04-26-12-18-33;8,0;47,0;1000;0,0;3,0;2,0;1,0;row;1,0;False;False;False;1,39499998093;True;1,17100000381
HMH1987w;game;2017-04-26-12-18-33;8,0;48,0;1000;2,0;3,0;1,0;0,0;row;1,0;True;True;True;1,70000004768;True;0,697999954224
HMH1987w;game;2017-04-26-12-18-33;9,0;1,0;100;1,0;0,0;2,0;3,0;column;1,0;False;True;False;2,3029999733;True;1,29600000381
HMH1987w;game;2017-04-26-12-18-33;9,0;2,0;100;2,0;0,0;1,0;3,0;column;1,0;False;False;False;1,79999995232;True;1,43099999428
HMH1987w;game;2017-04-26-12-18-33;9,0;3,0;100;3,0;0,0;1,0;2,0;row;0,0;False;True;False;2,16500020027;True;1,29999995232
HMH1987w;game;2017-04-26-12-18-33;9,0;4,0;100;3,0;1,0;0,0;2,0;row;0,0;True;True;True;1,47000002861;True;1,37400007248
HMH1987w;game;2017-04-26-12-18-33;9,0;5,0;100;1,0;2,0;3,0;0,0;column;0,0;False;True;False;2,5;True;1,39600014687
HMH1987w;game;2017-04-26-12-18-33;9,0;6,0;100;0,0;2,0;3,0;1,0;column;0,0;True;True;False;1,87800002098;False;1,26300001144
HMH1987w;game;2017-04-26-12-18-33;9,0;7,0;100;0,0;1,0;3,0;2,0;column;0,0;True;True;True;3,76099991798;True;0,930000066757
HMH1987w;game;2017-04-26-12-18-33;9,0;8,0;100;1,0;0,0;2,0;3,0;column;1,0;True;True;True;1,76699995995;True;0,733000040054
HMH1987w;game;2017-04-26-12-18-33;9,0;9,0;100;2,0;1,0;3,0;0,0;column;1,0;False;False;True;2,46199989319;False;0,567000150681
HMH1987w;game;2017-04-26-12-18-33;9,0;10,0;100;3,0;2,0;1,0;0,0;column;1,0;False;True;False;2,10100007057;True;1,10100007057
HMH1987w;game;2017-04-26-12-18-33;9,0;11,0;100;2,0;1,0;3,0;0,0;row;1,0;True;False;True;2,00699996948;True;0,703000068665
HMH1987w;game;2017-04-26-12-18-33;9,0;12,0;100;1,0;3,0;2,0;0,0;column;0,0;True;True;False;3,02800011635;False;1,10100007057
HMH1987w;game;2017-04-26-12-18-33;9,0;13,0;100;2,0;3,0;1,0;0,0;row;0,0;False;False;False;1,36800003052;True;1,13800001144
HMH1987w;game;2017-04-26-12-18-33;9,0;14,0;100;2,0;3,0;0,0;1,0;row;0,0;True;False;False;1,09999990463;False;0,604000091553
HMH1987w;game;2017-04-26-12-18-33;9,0;15,0;100;3,0;1,0;2,0;0,0;column;0,0;True;True;False;2,36299991608;False;1,33400011063
HMH1987w;game;2017-04-26-12-18-33;9,0;16,0;100;0,0;1,0;2,0;3,0;column;1,0;True;True;False;2,43300008774;False;1,43099999428
HMH1987w;game;2017-04-26-12-18-33;9,0;17,0;100;0,0;1,0;3,0;2,0;row;0,0;True;False;True;1,23399996758;True;0,730999946594
HMH1987w;game;2017-04-26-12-18-33;9,0;18,0;100;1,0;0,0;2,0;3,0;column;0,0;False;False;False;3,83200001717;True;0,930999994278
HMH1987w;game;2017-04-26-12-18-33;9,0;19,0;100;0,0;3,0;1,0;2,0;row;1,0;True;False;True;3,39899992943;True;1,4319999218
HMH1987w;game;2017-04-26-12-18-33;9,0;20,0;100;0,0;3,0;1,0;2,0;row;1,0;False;True;True;2,73799991608;False;1,13499999046
HMH1987w;game;2017-04-26-12-18-33;9,0;21,0;100;3,0;2,0;1,0;0,0;row;0,0;False;False;False;1,36600017548;True;0,828999996185
HMH1987w;game;2017-04-26-12-18-33;9,0;22,0;100;2,0;0,0;3,0;1,0;column;0,0;True;True;True;3,2460000515;True;0,905999898911
HMH1987w;game;2017-04-26-12-18-33;9,0;23,0;100;0,0;1,0;2,0;3,0;column;1,0;False;True;False;2,17199993134;True;0,601999998093
HMH1987w;game;2017-04-26-12-18-33;9,0;24,0;100;2,0;3,0;1,0;0,0;row;1,0;True;False;False;1,9359998703;False;0,55999994278
HMH1987w;game;2017-04-26-12-18-33;9,0;25,0;100;0,0;3,0;2,0;1,0;column;1,0;False;True;False;3,3639998436;True;1,45699977875
HMH1987w;game;2017-04-26-12-18-33;9,0;26,0;100;2,0;0,0;3,0;1,0;column;1,0;False;False;False;1,56699991226;True;1,10299992561
HMH1987w;game;2017-04-26-12-18-33;9,0;27,0;100;3,0;0,0;2,0;1,0;column;0,0;False;True;False;2,02999997139;True;0,661000013351
HMH1987w;game;2017-04-26-12-18-33;9,0;28,0;100;3,0;0,0;1,0;2,0;row;1,0;True;True;True;1,66599988937;True;1,26999998093
HMH1987w;game;2017-04-26-12-18-33;9,0;29,0;100;1,0;0,0;2,0;3,0;column;0,0;True;True;False;3,89700007439;False;1,29699993134
HMH1987w;game;2017-04-26-12-18-33;9,0;30,0;100;1,0;2,0;3,0;0,0;row;1,0;False;False;False;2,2990000248;True;0,732000112534
HMH1987w;game;2017-04-26-12-18-33;9,0;31,0;100;3,0;0,0;1,0;2,0;column;1,0;False;True;False;2,16599988937;True;1,19900012016
HMH1987w;game;2017-04-26-12-18-33;9,0;32,0;100;2,0;1,0;0,0;3,0;row;0,0;True;True;True;1,03299999237;True;1,19199991226
HMH1987w;game;2017-04-26-12-18-33;9,0;33,0;100;2,0;1,0;0,0;3,0;column;0,0;True;False;False;1,56699991226;False;1,00300002098
HMH1987w;game;2017-04-26-12-18-33;9,0;34,0;100;2,0;0,0;1,0;3,0;row;0,0;True;False;True;1,7990000248;True;1,43300008774
HMH1987w;game;2017-04-26-12-18-33;9,0;35,0;100;1,0;3,0;0,0;2,0;column;0,0;False;False;False;2,73100018501;True;1,40099978447
HMH1987w;game;2017-04-26-12-18-33;9,0;36,0;100;2,0;0,0;1,0;3,0;column;0,0;False;False;False;3,60000014305;True;1,16700005531
HMH1987w;game;2017-04-26-12-18-33;9,0;37,0;100;1,0;0,0;3,0;2,0;row;1,0;False;True;False;3,54600000381;True;1,2539999485
HMH1987w;game;2017-04-26-12-18-33;9,0;38,0;100;0,0;3,0;2,0;1,0;row;0,0;False;False;False;1,23200011253;True;0,797999858856
HMH1987w;game;2017-04-26-12-18-33;9,0;39,0;100;3,0;1,0;2,0;0,0;row;0,0;False;False;False;1,132999897;True;1,49499988556
HMH1987w;game;2017-04-26-12-18-33;9,0;40,0;100;0,0;1,0;2,0;3,0;row;0,0;False;True;False;1,6970000267;True;0,501999855042
HMH1987w;game;2017-04-26-12-18-33;9,0;41,0;100;1,0;3,0;2,0;0,0;column;0,0;False;False;False;2,3029999733;True;1,16799998283
HMH1987w;game;2017-04-26-12-18-33;9,0;42,0;100;2,0;1,0;3,0;0,0;column;1,0;True;True;True;2,33100008965;True;0,651999950409
HMH1987w;game;2017-04-26-12-18-33;9,0;43,0;100;3,0;0,0;1,0;2,0;column;0,0;True;False;False;4,43099999428;False;0,772000074387
HMH1987w;game;2017-04-26-12-18-33;9,0;44,0;100;0,0;2,0;3,0;1,0;row;0,0;False;True;False;1,16499996185;True;0,865000009537
HMH1987w;game;2017-04-26-12-18-33;9,0;45,0;100;3,0;1,0;2,0;0,0;column;1,0;False;False;False;1,60100007057;True;0,694999933243
HMH1987w;game;2017-04-26-12-18-33;9,0;46,0;100;0,0;1,0;3,0;2,0;row;0,0;False;True;False;1,0;True;1,43499994278
HMH1987w;game;2017-04-26-12-18-33;9,0;47,0;100;3,0;1,0;2,0;0,0;row;1,0;True;False;True;2,16600012779;True;0,628999948502
HMH1987w;game;2017-04-26-12-18-33;9,0;48,0;100;2,0;3,0;0,0;1,0;row;1,0;False;True;False;1,83899998665;True;0,765000104904
HMH1987w;game;2017-04-26-12-18-33;10,0;1,0;-100;3,0;2,0;0,0;1,0;column;1,0;False;True;False;2,82199978828;True;1,492000103
HMH1987w;game;2017-04-26-12-18-33;10,0;2,0;-100;3,0;0,0;1,0;2,0;row;0,0;True;False;True;1,04999995232;True;1,36500000954
HMH1987w;game;2017-04-26-12-18-33;10,0;3,0;-100;0,0;2,0;3,0;1,0;column;1,0;True;False;True;3,34999990463;True;1,1369998455
HMH1987w;game;2017-04-26-12-18-33;10,0;4,0;-100;2,0;1,0;0,0;3,0;column;0,0;False;True;False;3,24799990654;True;0,56500005722
HMH1987w;game;2017-04-26-12-18-33;10,0;5,0;-100;0,0;1,0;2,0;3,0;column;1,0;False;False;False;2,18300008774;True;0,838999986649
HMH1987w;game;2017-04-26-12-18-33;10,0;6,0;-100;2,0;3,0;0,0;1,0;column;1,0;False;True;False;2,31399989128;True;1,22999978065
HMH1987w;game;2017-04-26-12-18-33;10,0;7,0;-100;0,0;3,0;2,0;1,0;row;0,0;True;False;True;1,54999995232;True;0,797999858856
HMH1987w;game;2017-04-26-12-18-33;10,0;8,0;-100;2,0;0,0;1,0;3,0;row;1,0;True;False;True;2,61599993706;True;0,858000040054
HMH1987w;game;2017-04-26-12-18-33;10,0;9,0;-100;0,0;3,0;1,0;2,0;row;1,0;True;False;True;2,04799985886;True;1,40499997139
HMH1987w;game;2017-04-26-12-18-33;10,0;10,0;-100;3,0;1,0;0,0;2,0;column;1,0;False;False;False;3,04799985886;True;0,772000074387
HMH1987w;game;2017-04-26-12-18-33;10,0;11,0;-100;1,0;0,0;3,0;2,0;column;0,0;True;True;False;2,84899997711;False;0,598999977112
HMH1987w;game;2017-04-26-12-18-33;10,0;12,0;-100;3,0;0,0;1,0;2,0;row;0,0;False;True;False;1,14899992943;True;1,43000006676
HMH1987w;game;2017-04-26-12-18-33;10,0;13,0;-100;0,0;1,0;2,0;3,0;row;0,0;False;False;False;1,78299999237;True;0,59500002861
HMH1987w;game;2017-04-26-12-18-33;10,0;14,0;-100;1,0;2,0;3,0;0,0;row;1,0;True;True;True;2,0119998455;True;0,899999856949
HMH1987w;game;2017-04-26-12-18-33;10,0;15,0;-100;3,0;0,0;1,0;2,0;column;1,0;False;False;False;1,85100007057;True;1,19899988174
HMH1987w;game;2017-04-26-12-18-33;10,0;16,0;-100;1,0;3,0;0,0;2,0;column;0,0;True;True;False;1,38399982452;False;0,929000139236
HMH1987w;game;2017-04-26-12-18-33;10,0;17,0;-100;3,0;1,0;0,0;2,0;row;0,0;True;True;False;1,61500000954;False;1,28900003433
HMH1987w;game;2017-04-26-12-18-33;10,0;18,0;-100;0,0;2,0;3,0;1,0;column;0,0;False;False;True;1,31100010872;False;1,32500004768
HMH1987w;game;2017-04-26-12-18-33;10,0;19,0;-100;0,0;1,0;3,0;2,0;row;0,0;True;False;True;0,912000179291;True;1,26699995995
HMH1987w;game;2017-04-26-12-18-33;10,0;20,0;-100;1,0;2,0;3,0;0,0;column;0,0;True;True;False;0,717000007629;False;1,06799983978
HMH1987w;game;2017-04-26-12-18-33;10,0;21,0;-100;0,0;3,0;2,0;1,0;row;0,0;False;False;False;1,28199982643;True;0,797999858856
HMH1987w;game;2017-04-26-12-18-33;10,0;22,0;-100;2,0;1,0;3,0;0,0;column;1,0;True;True;False;1,98300004005;False;1,06699991226
HMH1987w;game;2017-04-26-12-18-33;10,0;23,0;-100;0,0;3,0;2,0;1,0;column;0,0;True;True;False;2,18799996376;False;0,792000055313
HMH1987w;game;2017-04-26-12-18-33;10,0;24,0;-100;0,0;3,0;2,0;1,0;row;1,0;True;False;True;2,22200012207;True;1,13300013542
HMH1987w;game;2017-04-26-12-18-33;10,0;25,0;-100;1,0;0,0;2,0;3,0;row;1,0;False;True;True;1,35000014305;False;1,30499982834
HMH1987w;game;2017-04-26-12-18-33;10,0;26,0;-100;1,0;3,0;0,0;2,0;column;1,0;True;True;False;1,71499991417;False;1,00300002098
HMH1987w;game;2017-04-26-12-18-33;10,0;27,0;-100;3,0;1,0;2,0;0,0;row;0,0;False;True;False;1,34899997711;True;1,35400009155
HMH1987w;game;2017-04-26-12-18-33;10,0;28,0;-100;3,0;2,0;1,0;0,0;column;1,0;False;False;False;1,41899991035;True;1,26699995995
HMH1987w;game;2017-04-26-12-18-33;10,0;29,0;-100;3,0;1,0;2,0;0,0;column;0,0;False;False;True;2,14999985695;False;0,639999866486
HMH1987w;game;2017-04-26-12-18-33;10,0;30,0;-100;0,0;2,0;1,0;3,0;row;1,0;False;False;False;4,11199998856;True;0,628000020981
HMH1987w;game;2017-04-26-12-18-33;10,0;31,0;-100;2,0;0,0;3,0;1,0;row;0,0;True;False;True;1,54999995232;True;0,9359998703
HMH1987w;game;2017-04-26-12-18-33;10,0;32,0;-100;0,0;3,0;2,0;1,0;column;0,0;False;False;False;2,81500005722;True;1,36500000954
HMH1987w;game;2017-04-26-12-18-33;10,0;33,0;-100;0,0;3,0;1,0;2,0;column;1,0;False;False;False;3,87199997902;True;1,36899995804
HMH1987w;game;2017-04-26-12-18-33;10,0;34,0;-100;1,0;0,0;2,0;3,0;row;0,0;False;False;False;2,04999995232;True;1,16499996185
HMH1987w;game;2017-04-26-12-18-33;10,0;35,0;-100;1,0;3,0;0,0;2,0;column;1,0;False;True;False;2,19499993324;True;1,28999996185
HMH1987w;game;2017-04-26-12-18-33;10,0;36,0;-100;1,0;3,0;2,0;0,0;column;0,0;True;True;True;4,58200001717;True;0,659999847412
HMH1987w;game;2017-04-26-12-18-33;10,0;37,0;-100;1,0;0,0;3,0;2,0;row;1,0;False;False;False;2,5529999733;True;0,962000131607
HMH1987w;game;2017-04-26-12-18-33;10,0;38,0;-100;1,0;3,0;2,0;0,0;column;1,0;False;False;False;2,28299999237;True;1,03499984741
HMH1987w;game;2017-04-26-12-18-33;10,0;39,0;-100;0,0;2,0;1,0;3,0;column;0,0;True;False;True;2,5490000248;True;1,33200001717
HMH1987w;game;2017-04-26-12-18-33;10,0;40,0;-100;0,0;2,0;3,0;1,0;column;1,0;False;True;False;3,75;True;1,43400001526
HMH1987w;game;2017-04-26-12-18-33;10,0;41,0;-100;3,0;0,0;1,0;2,0;column;0,0;False;True;False;4,24799990654;True;1,07800006866
HMH1987w;game;2017-04-26-12-18-33;10,0;42,0;-100;3,0;0,0;2,0;1,0;row;0,0;True;True;True;1,15000009537;True;1,19799995422
HMH1987w;game;2017-04-26-12-18-33;10,0;43,0;-100;1,0;3,0;2,0;0,0;row;0,0;False;True;False;1,48199987411;True;1,0039999485
HMH1987w;game;2017-04-26-12-18-33;10,0;44,0;-100;1,0;2,0;3,0;0,0;row;0,0;True;True;True;1,45700001717;True;0,731000185013
HMH1987w;game;2017-04-26-12-18-33;10,0;45,0;-100;2,0;0,0;1,0;3,0;row;1,0;False;False;False;3,11800003052;True;0,933000087738
HMH1987w;game;2017-04-26-12-18-33;10,0;46,0;-100;1,0;3,0;2,0;0,0;column;1,0;True;True;True;2,21600008011;True;1,22900009155
HMH1987w;game;2017-04-26-12-18-33;10,0;47,0;-100;3,0;0,0;1,0;2,0;column;0,0;True;False;True;3,88700008392;True;1,02600002289
HMH1987w;game;2017-04-26-12-18-33;10,0;48,0;-100;2,0;3,0;0,0;1,0;row;1,0;False;True;False;1,61500000954;True;0,632999897003
HMH1987w;game;2017-04-26-12-18-33;11,0;1,0;100;3,0;2,0;1,0;0,0;row;1,0;True;False;True;3,46499991417;True;0,939999818802
HMH1987w;game;2017-04-26-12-18-33;11,0;2,0;100;0,0;3,0;1,0;2,0;column;0,0;False;False;False;3,25999999046;True;0,664000034332
HMH1987w;game;2017-04-26-12-18-33;11,0;3,0;100;2,0;1,0;0,0;3,0;row;1,0;True;True;False;1,79999995232;False;1,132999897
HMH1987w;game;2017-04-26-12-18-33;11,0;4,0;100;3,0;2,0;0,0;1,0;row;0,0;False;False;False;1,5;True;0,863000154495
HMH1987w;game;2017-04-26-12-18-33;11,0;5,0;100;0,0;2,0;1,0;3,0;row;0,0;True;True;True;0,967000007629;True;1,23600006104
HMH1987w;game;2017-04-26-12-18-33;11,0;6,0;100;0,0;3,0;1,0;2,0;row;0,0;False;True;False;0,798000097275;True;1,2650001049
HMH1987w;game;2017-04-26-12-18-33;11,0;7,0;100;0,0;1,0;3,0;2,0;row;1,0;False;False;False;1,86699986458;True;1,39600014687
HMH1987w;game;2017-04-26-12-18-33;11,0;8,0;100;1,0;2,0;0,0;3,0;row;1,0;True;True;True;1,73300004005;True;0,838000059128
HMH1987w;game;2017-04-26-12-18-33;11,0;9,0;100;1,0;0,0;3,0;2,0;row;0,0;False;True;False;1,09999990463;True;0,833999872208
HMH1987w;game;2017-04-26-12-18-33;11,0;10,0;100;1,0;2,0;0,0;3,0;row;0,0;True;False;True;0,833000183105;True;1,09499979019
HMH1987w;game;2017-04-26-12-18-33;11,0;11,0;100;1,0;2,0;0,0;3,0;column;0,0;False;True;False;2,70000004768;True;0,598000049591
HMH1987w;game;2017-04-26-12-18-33;11,0;12,0;100;0,0;2,0;3,0;1,0;row;0,0;True;False;True;1,06500005722;True;1,40299987793
HMH1987w;game;2017-04-26-12-18-33;11,0;13,0;100;0,0;1,0;3,0;2,0;column;1,0;False;True;False;3,72799992561;True;0,704999923706
HMH1987w;game;2017-04-26-12-18-33;11,0;14,0;100;3,0;0,0;2,0;1,0;row;0,0;True;True;True;1,63300013542;True;1,23200011253
HMH1987w;game;2017-04-26-12-18-33;11,0;15,0;100;3,0;1,0;0,0;2,0;row;0,0;False;False;False;1,76799988747;True;0,700999975204
HMH1987w;game;2017-04-26-12-18-33;11,0;16,0;100;0,0;2,0;1,0;3,0;column;1,0;False;False;False;1,89899992943;True;1,12399983406
HMH1987w;game;2017-04-26-12-18-33;11,0;17,0;100;2,0;3,0;1,0;0,0;column;0,0;False;True;False;2,33399987221;True;0,737000226974
HMH1987w;game;2017-04-26-12-18-33;11,0;18,0;100;2,0;0,0;3,0;1,0;column;0,0;False;False;False;2,83100008965;True;1,42499995232
HMH1987w;game;2017-04-26-12-18-33;11,0;19,0;100;2,0;3,0;0,0;1,0;row;1,0;True;False;True;1,59899997711;True;1,43899989128
HMH1987w;game;2017-04-26-12-18-33;11,0;20,0;100;1,0;3,0;0,0;2,0;column;1,0;False;True;False;1,53999996185;True;0,924000024796
HMH1987w;game;2017-04-26-12-18-33;11,0;21,0;100;0,0;3,0;2,0;1,0;row;1,0;True;True;True;2,74499988556;True;0,568000078201
HMH1987w;game;2017-04-26-12-18-33;11,0;22,0;100;1,0;2,0;3,0;0,0;row;0,0;True;False;True;1,29999995232;True;0,895999908447
HMH1987w;game;2017-04-26-12-18-33;11,0;23,0;100;2,0;1,0;3,0;0,0;column;0,0;True;True;True;3,5759999752;True;1,52399992943
HMH1987w;game;2017-04-26-12-18-33;11,0;24,0;100;2,0;1,0;0,0;3,0;column;1,0;False;True;False;3,36999988556;True;1,132999897
HMH1987w;game;2017-04-26-12-18-33;11,0;25,0;100;3,0;2,0;1,0;0,0;column;0,0;True;True;True;3,47200012207;True;0,696999788284
HMH1987w;game;2017-04-26-12-18-33;11,0;26,0;100;0,0;2,0;3,0;1,0;row;1,0;False;False;False;1,46499991417;True;1,00999999046
HMH1987w;game;2017-04-26-12-18-33;11,0;27,0;100;1,0;2,0;3,0;0,0;row;0,0;False;False;False;1,23699998856;True;1,19400000572
HMH1987w;game;2017-04-26-12-18-33;11,0;28,0;100;0,0;1,0;3,0;2,0;column;0,0;False;False;False;1,66700005531;True;0,572000026703
HMH1987w;game;2017-04-26-12-18-33;11,0;29,0;100;0,0;2,0;3,0;1,0;row;1,0;True;False;True;2,66600012779;True;0,531999826431
HMH1987w;game;2017-04-26-12-18-33;11,0;30,0;100;0,0;1,0;2,0;3,0;row;1,0;True;False;True;1,86500000954;True;1,22399997711
HMH1987w;game;2017-04-26-12-18-33;11,0;31,0;100;1,0;2,0;3,0;0,0;column;1,0;True;False;True;2,53500008583;True;0,861000061035
HMH1987w;game;2017-04-26-12-18-33;11,0;32,0;100;3,0;0,0;1,0;2,0;column;0,0;False;False;False;2,63400006294;True;0,699000120163
HMH1987w;game;2017-04-26-12-18-33;11,0;33,0;100;0,0;2,0;3,0;1,0;column;1,0;True;False;True;3,4319999218;True;0,976999998093
HMH1987w;game;2017-04-26-12-18-33;11,0;34,0;100;3,0;0,0;1,0;2,0;row;1,0;False;True;False;1,43299984932;True;1,32999992371
HMH1987w;game;2017-04-26-12-18-33;11,0;35,0;100;1,0;3,0;0,0;2,0;row;0,0;False;False;False;1,23199987411;True;0,662999868393
HMH1987w;game;2017-04-26-12-18-33;11,0;36,0;100;3,0;0,0;1,0;2,0;row;0,0;True;True;True;0,966000080109;True;1,49599981308
HMH1987w;game;2017-04-26-12-18-33;11,0;37,0;100;2,0;0,0;3,0;1,0;row;1,0;False;True;False;1,99399995804;True;1,23399996758
HMH1987w;game;2017-04-26-12-18-33;11,0;38,0;100;1,0;0,0;3,0;2,0;row;1,0;True;False;True;2,33100008965;True;0,898000001907
HMH1987w;game;2017-04-26-12-18-33;11,0;39,0;100;2,0;1,0;3,0;0,0;row;1,0;False;False;False;2,23799991608;True;0,529000043869
HMH1987w;game;2017-04-26-12-18-33;11,0;40,0;100;1,0;3,0;2,0;0,0;row;1,0;True;True;True;2,09500002861;True;0,56200003624
HMH1987w;game;2017-04-26-12-18-33;11,0;41,0;100;0,0;2,0;3,0;1,0;column;1,0;False;True;False;1,83200001717;True;1,367000103
HMH1987w;game;2017-04-26-12-18-33;11,0;42,0;100;2,0;0,0;1,0;3,0;column;1,0;True;False;True;2,16599988937;True;0,898000001907
HMH1987w;game;2017-04-26-12-18-33;11,0;43,0;100;1,0;0,0;3,0;2,0;row;0,0;True;False;True;0,900000095367;True;0,569000005722
HMH1987w;game;2017-04-26-12-18-33;11,0;44,0;100;1,0;2,0;0,0;3,0;row;0,0;False;False;False;1,2990000248;True;0,626000165939
HMH1987w;game;2017-04-26-12-18-33;11,0;45,0;100;2,0;0,0;3,0;1,0;row;0,0;False;True;False;0,832999944687;True;1,15700006485
HMH1987w;game;2017-04-26-12-18-33;11,0;46,0;100;0,0;3,0;2,0;1,0;row;1,0;False;False;False;1,53399991989;True;0,871999979019
HMH1987w;game;2017-04-26-12-18-33;11,0;47,0;100;3,0;1,0;2,0;0,0;column;0,0;False;False;False;3,16599988937;True;1,13599991798
HMH1987w;game;2017-04-26-12-18-33;11,0;48,0;100;1,0;3,0;2,0;0,0;row;0,0;False;False;False;1,29999995232;True;1,32699990273
HMH1987w;game;2017-04-26-12-18-33;12,0;1,0;1000;0,0;2,0;3,0;1,0;row;1,0;False;True;False;1,36500000954;True;0,996999979019
HMH1987w;game;2017-04-26-12-18-33;12,0;2,0;1000;3,0;1,0;2,0;0,0;column;1,0;True;True;False;1,30100011826;False;1,34599995613
HMH1987w;game;2017-04-26-12-18-33;12,0;3,0;1000;1,0;2,0;0,0;3,0;column;1,0;False;True;False;2,06500005722;True;1,10100007057
HMH1987w;game;2017-04-26-12-18-33;12,0;4,0;1000;0,0;1,0;3,0;2,0;column;0,0;True;True;False;1,53399991989;False;1,26600003242
HMH1987w;game;2017-04-26-12-18-33;12,0;5,0;1000;2,0;3,0;0,0;1,0;column;1,0;True;True;True;3,26699995995;True;0,633999824524
HMH1987w;game;2017-04-26-12-18-33;12,0;6,0;1000;3,0;0,0;1,0;2,0;column;0,0;False;True;False;1,23400020599;True;1,03399991989
HMH1987w;game;2017-04-26-12-18-33;12,0;7,0;1000;2,0;0,0;1,0;3,0;row;1,0;True;False;True;0,898999929428;True;1,17000007629
HMH1987w;game;2017-04-26-12-18-33;12,0;8,0;1000;0,0;3,0;2,0;1,0;column;0,0;False;False;False;1,06500005722;True;0,732000112534
HMH1987w;game;2017-04-26-12-18-33;12,0;9,0;1000;3,0;1,0;0,0;2,0;column;1,0;True;True;True;1,46500015259;True;0,763999938965
HMH1987w;game;2017-04-26-12-18-33;12,0;10,0;1000;0,0;1,0;2,0;3,0;row;0,0;False;True;False;2,46500015259;True;1,45799994469
HMH1987w;game;2017-04-26-12-18-33;12,0;11,0;1000;2,0;3,0;0,0;1,0;row;0,0;False;False;False;2,1320002079;True;0,824000120163
HMH1987w;game;2017-04-26-12-18-33;12,0;12,0;1000;3,0;2,0;0,0;1,0;row;0,0;False;True;False;1,5;True;1,16100001335
HMH1987w;game;2017-04-26-12-18-33;12,0;13,0;1000;0,0;3,0;1,0;2,0;column;1,0;True;False;True;2,867000103;True;0,901000022888
HMH1987w;game;2017-04-26-12-18-33;12,0;14,0;1000;3,0;2,0;1,0;0,0;row;1,0;False;True;False;2,44400000572;True;1,34000015259
HMH1987w;game;2017-04-26-12-18-33;12,0;15,0;1000;0,0;1,0;3,0;2,0;row;0,0;False;True;False;1,60100007057;True;1,09800004959
HMH1987w;game;2017-04-26-12-18-33;12,0;16,0;1000;3,0;1,0;0,0;2,0;row;1,0;False;False;False;1,83499979973;True;0,931999921799
HMH1987w;game;2017-04-26-12-18-33;12,0;17,0;1000;0,0;2,0;3,0;1,0;column;1,0;True;True;True;1,14300012589;True;0,913000106812
HMH1987w;game;2017-04-26-12-18-33;12,0;18,0;1000;0,0;3,0;2,0;1,0;column;1,0;False;False;True;1,69999980927;False;0,703999996185
HMH1987w;game;2017-04-26-12-18-33;12,0;19,0;1000;0,0;1,0;3,0;2,0;column;0,0;False;False;False;1,5;True;0,601000070572
HMH1987w;game;2017-04-26-12-18-33;12,0;20,0;1000;2,0;3,0;0,0;1,0;row;1,0;True;True;True;0,898999929428;True;1,00499987602
HMH1987w;game;2017-04-26-12-18-33;12,0;21,0;1000;0,0;3,0;1,0;2,0;column;1,0;False;False;True;1,26699995995;False;0,797999858856
HMH1987w;game;2017-04-26-12-18-33;12,0;22,0;1000;0,0;3,0;1,0;2,0;row;0,0;False;True;False;0,899999856949;True;0,769000053406
HMH1987w;game;2017-04-26-12-18-33;12,0;23,0;1000;0,0;3,0;2,0;1,0;row;0,0;True;False;True;1,20000004768;True;0,572000026703
HMH1987w;game;2017-04-26-12-18-33;12,0;24,0;1000;1,0;0,0;3,0;2,0;column;1,0;True;True;False;1,23300004005;False;0,898999929428
HMH1987w;game;2017-04-26-12-18-33;12,0;25,0;1000;2,0;1,0;3,0;0,0;row;1,0;False;True;False;3,8639998436;True;1,43300008774
HMH1987w;game;2017-04-26-12-18-33;12,0;26,0;1000;1,0;0,0;3,0;2,0;column;1,0;False;True;True;2,49800014496;False;1,17100000381
HMH1987w;game;2017-04-26-12-18-33;12,0;27,0;1000;0,0;3,0;2,0;1,0;row;1,0;True;False;True;1,76600003242;True;1,13000011444
HMH1987w;game;2017-04-26-12-18-33;12,0;28,0;1000;0,0;2,0;3,0;1,0;column;0,0;True;True;False;1,5;False;0,700999975204
HMH1987w;game;2017-04-26-12-18-33;12,0;29,0;1000;3,0;2,0;0,0;1,0;column;1,0;False;False;False;1,83599996567;True;1,2990000248
HMH1987w;game;2017-04-26-12-18-33;12,0;30,0;1000;0,0;1,0;2,0;3,0;row;1,0;True;False;True;1,99699997902;True;1,5
HMH1987w;game;2017-04-26-12-18-33;12,0;31,0;1000;1,0;3,0;0,0;2,0;row;0,0;True;False;True;0,832999944687;True;1,36699986458
HMH1987w;game;2017-04-26-12-18-33;12,0;32,0;1000;2,0;0,0;3,0;1,0;row;1,0;False;False;False;1,06700015068;True;1,02800011635
HMH1987w;game;2017-04-26-12-18-33;12,0;33,0;1000;1,0;3,0;2,0;0,0;column;0,0;True;True;False;1,76600003242;False;0,52999997139
HMH1987w;game;2017-04-26-12-18-33;12,0;34,0;1000;2,0;1,0;3,0;0,0;row;0,0;True;False;True;0,933000087738;True;1,02600002289
HMH1987w;game;2017-04-26-12-18-33;12,0;35,0;1000;3,0;1,0;0,0;2,0;column;1,0;False;True;False;3,7650001049;True;0,793999910355
HMH1987w;game;2017-04-26-12-18-33;12,0;36,0;1000;2,0;1,0;0,0;3,0;column;1,0;False;True;False;2,43299984932;True;1,30100011826
HMH1987w;game;2017-04-26-12-18-33;12,0;37,0;1000;0,0;2,0;3,0;1,0;row;0,0;True;False;True;0,899999856949;True;0,539000034332
HMH1987w;game;2017-04-26-12-18-33;12,0;38,0;1000;1,0;3,0;2,0;0,0;column;1,0;True;False;False;2,2990000248;False;1,39899992943
HMH1987w;game;2017-04-26-12-18-33;12,0;39,0;1000;2,0;3,0;1,0;0,0;column;0,0;True;False;True;2,79999995232;True;1,00100016594
HMH1987w;game;2017-04-26-12-18-33;12,0;40,0;1000;1,0;2,0;3,0;0,0;column;1,0;False;False;False;2,53100013733;True;1,42900013924
HMH1987w;game;2017-04-26-12-18-33;12,0;41,0;1000;0,0;3,0;1,0;2,0;column;0,0;False;False;False;1,60400009155;True;0,938999891281
HMH1987w;game;2017-04-26-12-18-33;12,0;42,0;1000;2,0;1,0;3,0;0,0;column;1,0;True;False;True;2,132999897;True;1,10299992561
HMH1987w;game;2017-04-26-12-18-33;12,0;43,0;1000;0,0;2,0;1,0;3,0;column;0,0;False;False;False;1,73100018501;True;0,796000003815
HMH1987w;game;2017-04-26-12-18-33;12,0;44,0;1000;2,0;3,0;1,0;0,0;row;0,0;False;True;False;2,03600001335;True;0,662999868393
HMH1987w;game;2017-04-26-12-18-33;12,0;45,0;1000;1,0;0,0;2,0;3,0;column;0,0;False;True;False;2,09700012207;True;0,858999967575
HMH1987w;game;2017-04-26-12-18-33;12,0;46,0;1000;2,0;0,0;3,0;1,0;row;1,0;True;False;False;0,799999952316;False;0,56299996376
HMH1987w;game;2017-04-26-12-18-33;12,0;47,0;1000;2,0;1,0;3,0;0,0;column;0,0;False;False;False;1,90099978447;True;1,36800003052
HMH1987w;game;2017-04-26-12-18-33;12,0;48,0;1000;2,0;1,0;3,0;0,0;row;1,0;True;True;True;1,40000009537;True;1,43300008774
