Observer;Condition;SessionID;Block;Trial;COA;Color0;Color1;Color2;Color3;Target;Which;Match;FlipComplimentary;Response;RT;Correct;OnsetDelay
IDK1985w;experiment;2017-01-31-14-39-48;1,0;1,0;-100;0,0;3,0;2,0;1,0;row;1,0;True;True;True;16,3860001564;True;1,17000007629
IDK1985w;experiment;2017-01-31-14-39-48;1,0;2,0;-100;2,0;3,0;0,0;1,0;column;1,0;True;False;False;2,64499998093;False;0,994999885559
IDK1985w;experiment;2017-01-31-14-39-48;1,0;3,0;-100;2,0;0,0;1,0;3,0;column;0,0;False;True;False;3,132999897;True;1,03699994087
IDK1985w;experiment;2017-01-31-14-39-48;1,0;4,0;-100;1,0;3,0;2,0;0,0;row;0,0;False;True;False;3,14900016785;True;0,930999994278
IDK1985w;experiment;2017-01-31-14-39-48;1,0;5,0;-100;2,0;1,0;3,0;0,0;column;1,0;True;True;False;4,38199996948;False;0,9390001297
IDK1985w;experiment;2017-01-31-14-39-48;1,0;6,0;-100;2,0;3,0;1,0;0,0;column;1,0;True;True;True;1,48099994659;True;0,835000038147
IDK1985w;experiment;2017-01-31-14-39-48;1,0;7,0;-100;1,0;2,0;3,0;0,0;column;1,0;True;False;False;2,84999990463;False;1,02900004387
IDK1985w;experiment;2017-01-31-14-39-48;1,0;8,0;-100;2,0;0,0;1,0;3,0;row;1,0;False;True;True;2,98299980164;False;1,02999997139
IDK1985w;experiment;2017-01-31-14-39-48;1,0;9,0;-100;3,0;0,0;1,0;2,0;column;1,0;False;False;True;2,38199996948;False;0,926999807358
IDK1985w;experiment;2017-01-31-14-39-48;1,0;10,0;-100;0,0;3,0;1,0;2,0;column;0,0;False;True;False;2,21399998665;True;1,36299991608
IDK1985w;experiment;2017-01-31-14-39-48;1,0;11,0;-100;1,0;2,0;0,0;3,0;column;0,0;False;False;True;2,65199995041;False;1,4279999733
IDK1985w;experiment;2017-01-31-14-39-48;1,0;12,0;-100;1,0;2,0;3,0;0,0;column;1,0;False;False;True;3,48199987411;False;0,730000019073
IDK1985w;experiment;2017-01-31-14-39-48;1,0;13,0;-100;3,0;1,0;0,0;2,0;row;0,0;True;True;True;1,75;True;0,52599978447
IDK1985w;experiment;2017-01-31-14-39-48;1,0;14,0;-100;0,0;3,0;2,0;1,0;column;0,0;False;True;False;2,31699991226;True;1,1289999485
IDK1985w;experiment;2017-01-31-14-39-48;1,0;15,0;-100;1,0;2,0;3,0;0,0;column;0,0;False;True;False;2,18499994278;True;0,927000045776
IDK1985w;experiment;2017-01-31-14-39-48;1,0;16,0;-100;1,0;2,0;3,0;0,0;row;0,0;False;False;False;2,71599984169;True;0,898999929428
IDK1985w;experiment;2017-01-31-14-39-48;1,0;17,0;-100;2,0;3,0;1,0;0,0;row;1,0;False;True;True;1,14800000191;False;0,531000137329
IDK1985w;experiment;2017-01-31-14-39-48;1,0;18,0;-100;1,0;0,0;3,0;2,0;column;1,0;False;True;False;2,81700015068;True;0,634000062943
IDK1985w;experiment;2017-01-31-14-39-48;1,0;19,0;-100;3,0;0,0;1,0;2,0;row;1,0;False;False;True;2,21600008011;False;0,628999948502
IDK1985w;experiment;2017-01-31-14-39-48;1,0;20,0;-100;1,0;2,0;0,0;3,0;row;0,0;True;True;True;2,65100002289;True;0,571000099182
IDK1985w;experiment;2017-01-31-14-39-48;1,0;21,0;-100;3,0;2,0;0,0;1,0;row;0,0;False;False;False;2,78400015831;True;1,36599993706
IDK1985w;experiment;2017-01-31-14-39-48;1,0;22,0;-100;1,0;2,0;0,0;3,0;column;0,0;True;True;True;2,21799993515;True;1,03100013733
IDK1985w;experiment;2017-01-31-14-39-48;1,0;23,0;-100;2,0;1,0;0,0;3,0;column;1,0;False;True;False;3,0490000248;True;0,733999967575
IDK1985w;experiment;2017-01-31-14-39-48;1,0;24,0;-100;3,0;0,0;2,0;1,0;row;1,0;True;True;False;2,18099999428;False;0,593999862671
IDK1985w;experiment;2017-01-31-14-39-48;1,0;25,0;-100;1,0;3,0;2,0;0,0;column;0,0;True;False;False;2,61599993706;False;0,536999940872
IDK1985w;experiment;2017-01-31-14-39-48;1,0;26,0;-100;1,0;2,0;0,0;3,0;row;1,0;False;True;True;1,45000004768;False;1,23300004005
IDK1985w;experiment;2017-01-31-14-39-48;1,0;27,0;-100;0,0;3,0;1,0;2,0;column;0,0;True;False;False;3,04800009727;False;1,36600017548
IDK1985w;experiment;2017-01-31-14-39-48;1,0;28,0;-100;2,0;0,0;3,0;1,0;row;1,0;True;False;False;2,21700000763;False;0,730000019073
IDK1985w;experiment;2017-01-31-14-39-48;1,0;29,0;-100;2,0;1,0;3,0;0,0;column;1,0;False;False;True;2,95000004768;False;1,39700007439
IDK1985w;experiment;2017-01-31-14-39-48;1,0;30,0;-100;1,0;0,0;2,0;3,0;row;1,0;False;True;True;2,21700000763;False;1,46099996567
IDK1985w;experiment;2017-01-31-14-39-48;1,0;31,0;-100;0,0;2,0;1,0;3,0;row;1,0;False;False;False;1,75100016594;True;1,26900005341
IDK1985w;experiment;2017-01-31-14-39-48;1,0;32,0;-100;3,0;2,0;1,0;0,0;column;1,0;False;True;False;3,6139998436;True;1,16200017929
IDK1985w;experiment;2017-01-31-14-39-48;1,0;33,0;-100;3,0;0,0;2,0;1,0;row;0,0;True;True;True;1,48399996758;True;1,39499998093
IDK1985w;experiment;2017-01-31-14-39-48;1,0;34,0;-100;0,0;2,0;1,0;3,0;column;0,0;False;False;False;2,48200011253;True;0,602999925613
IDK1985w;experiment;2017-01-31-14-39-48;1,0;35,0;-100;0,0;3,0;1,0;2,0;row;0,0;False;True;False;2,28299999237;True;0,55999994278
IDK1985w;experiment;2017-01-31-14-39-48;1,0;36,0;-100;0,0;1,0;2,0;3,0;column;1,0;False;True;False;2,55000019073;True;1,0039999485
IDK1985w;experiment;2017-01-31-14-39-48;1,0;37,0;-100;0,0;3,0;2,0;1,0;row;1,0;False;True;True;2,14800000191;False;1,26699995995
IDK1985w;experiment;2017-01-31-14-39-48;1,0;38,0;-100;0,0;1,0;3,0;2,0;column;0,0;False;False;False;1,81599998474;True;1,23299980164
IDK1985w;experiment;2017-01-31-14-39-48;1,0;39,0;-100;3,0;0,0;2,0;1,0;column;0,0;False;False;False;1,64999985695;True;1,44000005722
IDK1985w;experiment;2017-01-31-14-39-48;1,0;40,0;-100;1,0;3,0;0,0;2,0;column;0,0;False;False;False;2,64900016785;True;0,535000085831
IDK1985w;experiment;2017-01-31-14-39-48;1,0;41,0;-100;0,0;1,0;3,0;2,0;row;0,0;False;False;False;2,48399996758;True;1,0039999485
IDK1985w;experiment;2017-01-31-14-39-48;1,0;42,0;-100;0,0;3,0;1,0;2,0;row;1,0;True;True;True;3,28299999237;True;1,32699990273
IDK1985w;experiment;2017-01-31-14-39-48;1,0;43,0;-100;3,0;0,0;1,0;2,0;column;0,0;False;True;False;2,04999995232;True;1,39499998093
IDK1985w;experiment;2017-01-31-14-39-48;1,0;44,0;-100;1,0;3,0;2,0;0,0;row;0,0;True;False;True;2,382999897;True;0,635999917984
IDK1985w;experiment;2017-01-31-14-39-48;1,0;45,0;-100;3,0;1,0;0,0;2,0;column;1,0;False;False;False;1,68400001526;True;1,26399993896
IDK1985w;experiment;2017-01-31-14-39-48;1,0;46,0;-100;2,0;1,0;3,0;0,0;row;1,0;True;True;True;1,58200001717;True;0,530000209808
IDK1985w;experiment;2017-01-31-14-39-48;1,0;47,0;-100;1,0;3,0;0,0;2,0;row;1,0;True;True;False;1,98500013351;False;0,797999858856
IDK1985w;experiment;2017-01-31-14-39-48;1,0;48,0;-100;2,0;3,0;0,0;1,0;column;1,0;False;False;False;1,88100004196;True;1,12999987602
IDK1985w;experiment;2017-01-31-14-39-48;2,0;1,0;100;3,0;2,0;0,0;1,0;row;1,0;False;True;False;2,06699991226;True;1,46600008011
IDK1985w;experiment;2017-01-31-14-39-48;2,0;2,0;100;2,0;0,0;3,0;1,0;column;1,0;True;True;False;2,23199987411;False;1,17199993134
IDK1985w;experiment;2017-01-31-14-39-48;2,0;3,0;100;1,0;0,0;3,0;2,0;column;1,0;True;True;False;2,30000019073;False;0,930000066757
IDK1985w;experiment;2017-01-31-14-39-48;2,0;4,0;100;1,0;2,0;0,0;3,0;row;1,0;False;False;True;1,99900007248;False;1,36100006104
IDK1985w;experiment;2017-01-31-14-39-48;2,0;5,0;100;3,0;0,0;2,0;1,0;row;0,0;False;False;False;1,89899992943;True;0,928999900818
IDK1985w;experiment;2017-01-31-14-39-48;2,0;6,0;100;0,0;1,0;3,0;2,0;row;1,0;True;False;True;1,53400015831;True;1,43400001526
IDK1985w;experiment;2017-01-31-14-39-48;2,0;7,0;100;3,0;0,0;1,0;2,0;column;0,0;True;False;False;1,7990000248;False;1,49499988556
IDK1985w;experiment;2017-01-31-14-39-48;2,0;8,0;100;1,0;0,0;2,0;3,0;row;0,0;True;True;True;2,36599993706;True;1,09899997711
IDK1985w;experiment;2017-01-31-14-39-48;2,0;9,0;100;0,0;1,0;3,0;2,0;column;1,0;True;False;False;1,46500015259;False;0,563999891281
IDK1985w;experiment;2017-01-31-14-39-48;2,0;10,0;100;2,0;0,0;1,0;3,0;row;0,0;False;True;False;1,73399996758;True;0,799000024796
IDK1985w;experiment;2017-01-31-14-39-48;2,0;11,0;100;0,0;2,0;3,0;1,0;column;0,0;False;True;True;1,70000004768;False;0,796000003815
IDK1985w;experiment;2017-01-31-14-39-48;2,0;12,0;100;2,0;3,0;0,0;1,0;column;0,0;False;False;False;1,59700012207;True;1,06399989128
IDK1985w;experiment;2017-01-31-14-39-48;2,0;13,0;100;1,0;3,0;0,0;2,0;row;0,0;True;False;True;1,06599998474;True;1,26600003242
IDK1985w;experiment;2017-01-31-14-39-48;2,0;14,0;100;3,0;2,0;1,0;0,0;row;0,0;False;True;True;1,40000009537;False;1,16700005531
IDK1985w;experiment;2017-01-31-14-39-48;2,0;15,0;100;1,0;3,0;0,0;2,0;row;0,0;False;False;False;1,92899990082;True;1,43099999428
IDK1985w;experiment;2017-01-31-14-39-48;2,0;16,0;100;3,0;2,0;0,0;1,0;column;0,0;True;False;True;2,46700000763;True;0,869999885559
IDK1985w;experiment;2017-01-31-14-39-48;2,0;17,0;100;0,0;3,0;1,0;2,0;row;0,0;True;False;True;1,73300004005;True;0,594000101089
IDK1985w;experiment;2017-01-31-14-39-48;2,0;18,0;100;3,0;1,0;0,0;2,0;row;0,0;True;False;True;1,46499991417;True;0,572999954224
IDK1985w;experiment;2017-01-31-14-39-48;2,0;19,0;100;2,0;1,0;3,0;0,0;column;0,0;True;False;True;1,40100002289;True;1,07100009918
IDK1985w;experiment;2017-01-31-14-39-48;2,0;20,0;100;2,0;0,0;1,0;3,0;column;1,0;False;False;False;2,76699995995;True;1,22600007057
IDK1985w;experiment;2017-01-31-14-39-48;2,0;21,0;100;1,0;2,0;3,0;0,0;column;1,0;False;True;False;2,23300004005;True;1,00199985504
IDK1985w;experiment;2017-01-31-14-39-48;2,0;22,0;100;0,0;3,0;1,0;2,0;column;1,0;False;True;False;1,36599993706;True;0,59500002861
IDK1985w;experiment;2017-01-31-14-39-48;2,0;23,0;100;3,0;1,0;2,0;0,0;row;1,0;True;True;True;1,36800003052;True;1,09600019455
IDK1985w;experiment;2017-01-31-14-39-48;2,0;24,0;100;2,0;1,0;3,0;0,0;row;0,0;True;False;False;2,36600017548;False;0,693000078201
IDK1985w;experiment;2017-01-31-14-39-48;2,0;25,0;100;1,0;2,0;0,0;3,0;column;0,0;False;False;True;1,63400006294;False;1,30099987984
IDK1985w;experiment;2017-01-31-14-39-48;2,0;26,0;100;2,0;0,0;3,0;1,0;row;0,0;False;True;True;1,0;False;0,874000072479
IDK1985w;experiment;2017-01-31-14-39-48;2,0;27,0;100;2,0;1,0;3,0;0,0;column;0,0;False;False;False;2,33299994469;True;1,00499987602
IDK1985w;experiment;2017-01-31-14-39-48;2,0;28,0;100;2,0;3,0;0,0;1,0;row;1,0;True;False;True;1,56699991226;True;0,726000070572
IDK1985w;experiment;2017-01-31-14-39-48;2,0;29,0;100;0,0;1,0;2,0;3,0;row;0,0;False;True;False;1,59999990463;True;0,632999897003
IDK1985w;experiment;2017-01-31-14-39-48;2,0;30,0;100;1,0;2,0;3,0;0,0;column;0,0;False;True;False;1,43300008774;True;1,36199998856
IDK1985w;experiment;2017-01-31-14-39-48;2,0;31,0;100;0,0;1,0;2,0;3,0;row;1,0;False;True;True;2,56699991226;False;0,605000019073
IDK1985w;experiment;2017-01-31-14-39-48;2,0;32,0;100;1,0;0,0;3,0;2,0;row;1,0;True;False;False;1,76600003242;False;0,796000003815
IDK1985w;experiment;2017-01-31-14-39-48;2,0;33,0;100;0,0;2,0;1,0;3,0;column;1,0;False;True;False;1,59899997711;True;1,4319999218
IDK1985w;experiment;2017-01-31-14-39-48;2,0;34,0;100;0,0;3,0;1,0;2,0;row;1,0;True;False;True;1,632999897;True;1,39499998093
IDK1985w;experiment;2017-01-31-14-39-48;2,0;35,0;100;2,0;1,0;0,0;3,0;row;0,0;True;False;False;1,26699995995;False;0,760999917984
IDK1985w;experiment;2017-01-31-14-39-48;2,0;36,0;100;3,0;0,0;2,0;1,0;row;1,0;False;True;False;1,86800003052;True;1,02600002289
IDK1985w;experiment;2017-01-31-14-39-48;2,0;37,0;100;2,0;0,0;3,0;1,0;row;0,0;True;False;True;1,36699986458;True;1,39599990845
IDK1985w;experiment;2017-01-31-14-39-48;2,0;38,0;100;2,0;3,0;1,0;0,0;column;0,0;True;False;False;1,66700005531;False;0,996999979019
IDK1985w;experiment;2017-01-31-14-39-48;2,0;39,0;100;3,0;0,0;1,0;2,0;row;0,0;True;True;True;1,76699995995;True;0,534999847412
IDK1985w;experiment;2017-01-31-14-39-48;2,0;40,0;100;3,0;0,0;1,0;2,0;column;1,0;True;True;False;2,79799985886;False;0,9390001297
IDK1985w;experiment;2017-01-31-14-39-48;2,0;41,0;100;3,0;1,0;2,0;0,0;column;1,0;False;True;False;1,60000014305;True;0,927999973297
IDK1985w;experiment;2017-01-31-14-39-48;2,0;42,0;100;2,0;1,0;0,0;3,0;column;0,0;False;False;True;2,33399987221;False;0,638000011444
IDK1985w;experiment;2017-01-31-14-39-48;2,0;43,0;100;2,0;1,0;0,0;3,0;row;1,0;True;True;True;2,0;True;1,16000008583
IDK1985w;experiment;2017-01-31-14-39-48;2,0;44,0;100;1,0;2,0;0,0;3,0;row;1,0;True;True;False;2,867000103;False;1,43200016022
IDK1985w;experiment;2017-01-31-14-39-48;2,0;45,0;100;0,0;2,0;3,0;1,0;row;1,0;True;True;True;2,46600008011;True;0,859999895096
IDK1985w;experiment;2017-01-31-14-39-48;2,0;46,0;100;1,0;0,0;3,0;2,0;column;0,0;False;True;True;1,93300008774;False;1,3710000515
IDK1985w;experiment;2017-01-31-14-39-48;2,0;47,0;100;2,0;0,0;1,0;3,0;row;1,0;True;True;False;2,03399991989;False;1,29500007629
IDK1985w;experiment;2017-01-31-14-39-48;2,0;48,0;100;0,0;3,0;2,0;1,0;row;0,0;True;False;True;2,70000004768;True;0,766999959946
IDK1985w;experiment;2017-01-31-14-39-48;3,0;1,0;1000;3,0;2,0;1,0;0,0;row;0,0;True;True;True;1,867000103;True;0,664000034332
IDK1985w;experiment;2017-01-31-14-39-48;3,0;2,0;1000;0,0;3,0;2,0;1,0;column;0,0;True;True;True;2,29800009727;True;1,35800004005
IDK1985w;experiment;2017-01-31-14-39-48;3,0;3,0;1000;1,0;3,0;2,0;0,0;column;1,0;True;True;True;2,23300004005;True;1,46900010109
IDK1985w;experiment;2017-01-31-14-39-48;3,0;4,0;1000;1,0;0,0;2,0;3,0;row;0,0;False;True;False;1,367000103;True;0,901999950409
IDK1985w;experiment;2017-01-31-14-39-48;3,0;5,0;1000;2,0;3,0;0,0;1,0;row;1,0;False;False;False;1,73399996758;True;1,40499997139
IDK1985w;experiment;2017-01-31-14-39-48;3,0;6,0;1000;3,0;2,0;0,0;1,0;column;0,0;False;True;False;2,09999990463;True;1,22600007057
IDK1985w;experiment;2017-01-31-14-39-48;3,0;7,0;1000;3,0;2,0;1,0;0,0;row;0,0;False;True;False;2,632999897;True;1,43200016022
IDK1985w;experiment;2017-01-31-14-39-48;3,0;8,0;1000;0,0;1,0;3,0;2,0;row;1,0;False;False;False;3,30000019073;True;1,22600007057
IDK1985w;experiment;2017-01-31-14-39-48;3,0;9,0;1000;3,0;1,0;0,0;2,0;column;1,0;True;True;True;1,86599993706;True;0,666000127792
IDK1985w;experiment;2017-01-31-14-39-48;3,0;10,0;1000;0,0;2,0;1,0;3,0;row;0,0;False;False;False;2,26799988747;True;1,02999997139
IDK1985w;experiment;2017-01-31-14-39-48;3,0;11,0;1000;3,0;2,0;0,0;1,0;column;0,0;True;True;True;2,29999995232;True;0,793999910355
IDK1985w;experiment;2017-01-31-14-39-48;3,0;12,0;1000;2,0;1,0;0,0;3,0;row;0,0;True;False;True;2,03399991989;True;1,49500012398
IDK1985w;experiment;2017-01-31-14-39-48;3,0;13,0;1000;0,0;2,0;1,0;3,0;row;1,0;True;False;False;1,86599993706;False;0,833000183105
IDK1985w;experiment;2017-01-31-14-39-48;3,0;14,0;1000;0,0;3,0;1,0;2,0;row;1,0;False;False;False;2,90000009537;True;1,00300002098
IDK1985w;experiment;2017-01-31-14-39-48;3,0;15,0;1000;3,0;1,0;2,0;0,0;column;0,0;False;False;False;2,99899983406;True;1,35699987411
IDK1985w;experiment;2017-01-31-14-39-48;3,0;16,0;1000;0,0;3,0;1,0;2,0;column;1,0;True;False;True;2,73300004005;True;1,49499988556
IDK1985w;experiment;2017-01-31-14-39-48;3,0;17,0;1000;2,0;1,0;0,0;3,0;row;0,0;False;True;True;2,03299999237;False;1,33400011063
IDK1985w;experiment;2017-01-31-14-39-48;3,0;18,0;1000;0,0;2,0;3,0;1,0;column;0,0;True;False;False;2,06700015068;False;0,894000053406
IDK1985w;experiment;2017-01-31-14-39-48;3,0;19,0;1000;1,0;3,0;0,0;2,0;row;0,0;True;True;True;2,59899997711;True;1,36500000954
IDK1985w;experiment;2017-01-31-14-39-48;3,0;20,0;1000;3,0;0,0;1,0;2,0;row;1,0;True;True;True;1,83400011063;True;0,56500005722
IDK1985w;experiment;2017-01-31-14-39-48;3,0;21,0;1000;2,0;3,0;1,0;0,0;column;0,0;True;True;False;2,29999995232;False;0,671000003815
IDK1985w;experiment;2017-01-31-14-39-48;3,0;22,0;1000;3,0;0,0;1,0;2,0;column;1,0;True;False;True;1,90000009537;True;1,1970000267
IDK1985w;experiment;2017-01-31-14-39-48;3,0;23,0;1000;3,0;2,0;0,0;1,0;column;1,0;False;False;False;2,0;True;1,16000008583
IDK1985w;experiment;2017-01-31-14-39-48;3,0;24,0;1000;1,0;2,0;3,0;0,0;row;1,0;False;True;False;2,03400015831;True;1,43699979782
IDK1985w;experiment;2017-01-31-14-39-48;3,0;25,0;1000;2,0;1,0;3,0;0,0;column;0,0;True;False;False;1,93299984932;False;1,09699988365
IDK1985w;experiment;2017-01-31-14-39-48;3,0;26,0;1000;3,0;1,0;2,0;0,0;column;1,0;True;False;True;1,76600003242;True;0,599999904633
IDK1985w;experiment;2017-01-31-14-39-48;3,0;27,0;1000;3,0;1,0;2,0;0,0;row;1,0;True;False;True;3,43300008774;True;1,39700007439
IDK1985w;experiment;2017-01-31-14-39-48;3,0;28,0;1000;2,0;1,0;3,0;0,0;column;1,0;True;False;True;1,53399991989;True;0,658999919891
IDK1985w;experiment;2017-01-31-14-39-48;3,0;29,0;1000;3,0;1,0;0,0;2,0;column;0,0;True;True;True;4,06500005722;True;0,962000131607
IDK1985w;experiment;2017-01-31-14-39-48;3,0;30,0;1000;2,0;1,0;0,0;3,0;column;0,0;True;True;False;2,06300020218;False;1,22799992561
IDK1985w;experiment;2017-01-31-14-39-48;3,0;31,0;1000;2,0;3,0;1,0;0,0;row;1,0;False;False;False;2,46700000763;True;1,12999987602
IDK1985w;experiment;2017-01-31-14-39-48;3,0;32,0;1000;2,0;3,0;1,0;0,0;row;0,0;False;False;False;2,83400011063;True;0,729000091553
IDK1985w;experiment;2017-01-31-14-39-48;3,0;33,0;1000;1,0;2,0;0,0;3,0;column;0,0;False;False;False;2,06700015068;True;0,928999900818
IDK1985w;experiment;2017-01-31-14-39-48;3,0;34,0;1000;1,0;0,0;3,0;2,0;row;0,0;False;False;False;2,43099999428;True;0,759999990463
IDK1985w;experiment;2017-01-31-14-39-48;3,0;35,0;1000;2,0;3,0;1,0;0,0;row;1,0;True;True;True;1,90199995041;True;0,996999979019
IDK1985w;experiment;2017-01-31-14-39-48;3,0;36,0;1000;2,0;0,0;3,0;1,0;row;1,0;True;False;True;3,9319999218;True;0,671000003815
IDK1985w;experiment;2017-01-31-14-39-48;3,0;37,0;1000;1,0;3,0;0,0;2,0;row;0,0;False;False;False;2,03200006485;True;0,766999959946
IDK1985w;experiment;2017-01-31-14-39-48;3,0;38,0;1000;1,0;2,0;0,0;3,0;row;0,0;True;False;True;1,46700000763;True;0,894999980927
IDK1985w;experiment;2017-01-31-14-39-48;3,0;39,0;1000;2,0;0,0;1,0;3,0;column;1,0;False;False;True;2,23300004005;False;1,03200006485
IDK1985w;experiment;2017-01-31-14-39-48;3,0;40,0;1000;0,0;1,0;2,0;3,0;column;0,0;False;True;False;1,90000009537;True;1,43300008774
IDK1985w;experiment;2017-01-31-14-39-48;3,0;41,0;1000;1,0;0,0;3,0;2,0;row;1,0;True;False;False;2,0;False;0,693000078201
IDK1985w;experiment;2017-01-31-14-39-48;3,0;42,0;1000;3,0;0,0;2,0;1,0;column;0,0;True;False;True;1,40000009537;True;0,930000066757
IDK1985w;experiment;2017-01-31-14-39-48;3,0;43,0;1000;2,0;0,0;3,0;1,0;row;0,0;False;False;True;2,33200001717;False;1,13100004196
IDK1985w;experiment;2017-01-31-14-39-48;3,0;44,0;1000;3,0;0,0;2,0;1,0;row;0,0;True;False;True;1,36500000954;True;0,725999832153
IDK1985w;experiment;2017-01-31-14-39-48;3,0;45,0;1000;2,0;0,0;3,0;1,0;column;0,0;True;False;False;2,2009999752;False;1,06100010872
IDK1985w;experiment;2017-01-31-14-39-48;3,0;46,0;1000;1,0;2,0;3,0;0,0;row;0,0;True;False;True;0,867000102997;True;1,50300002098
IDK1985w;experiment;2017-01-31-14-39-48;3,0;47,0;1000;2,0;1,0;3,0;0,0;row;0,0;False;False;False;3,19599986076;True;0,970999956131
IDK1985w;experiment;2017-01-31-14-39-48;3,0;48,0;1000;3,0;2,0;1,0;0,0;column;0,0;True;False;True;3,20000004768;True;1,22799992561
IDK1985w;experiment;2017-01-31-14-39-48;4,0;1,0;100;0,0;3,0;1,0;2,0;column;0,0;False;False;False;1,53199982643;True;0,721999883652
IDK1985w;experiment;2017-01-31-14-39-48;4,0;2,0;100;0,0;3,0;2,0;1,0;row;1,0;False;True;False;1,13300013542;True;0,603999853134
IDK1985w;experiment;2017-01-31-14-39-48;4,0;3,0;100;3,0;1,0;0,0;2,0;column;1,0;False;False;False;1,367000103;True;1,4350001812
IDK1985w;experiment;2017-01-31-14-39-48;4,0;4,0;100;2,0;3,0;1,0;0,0;column;0,0;False;False;False;1,93300008774;True;0,864000082016
IDK1985w;experiment;2017-01-31-14-39-48;4,0;5,0;100;3,0;2,0;1,0;0,0;column;1,0;True;True;True;1,53199982643;True;0,698999881744
IDK1985w;experiment;2017-01-31-14-39-48;4,0;6,0;100;2,0;1,0;0,0;3,0;column;1,0;False;False;False;1,86599993706;True;0,897000074387
IDK1985w;experiment;2017-01-31-14-39-48;4,0;7,0;100;1,0;3,0;2,0;0,0;row;0,0;False;True;False;1,60000014305;True;0,893000125885
IDK1985w;experiment;2017-01-31-14-39-48;4,0;8,0;100;2,0;0,0;3,0;1,0;row;1,0;True;False;False;2,36400008202;False;0,99599981308
IDK1985w;experiment;2017-01-31-14-39-48;4,0;9,0;100;2,0;0,0;3,0;1,0;column;0,0;False;False;False;2,13199996948;True;0,703999996185
IDK1985w;experiment;2017-01-31-14-39-48;4,0;10,0;100;1,0;3,0;0,0;2,0;column;1,0;False;True;False;1,73400020599;True;0,667999982834
IDK1985w;experiment;2017-01-31-14-39-48;4,0;11,0;100;3,0;2,0;1,0;0,0;column;0,0;True;False;False;1,43300008774;False;1,40599989891
IDK1985w;experiment;2017-01-31-14-39-48;4,0;12,0;100;0,0;2,0;1,0;3,0;row;1,0;True;True;True;1,59899997711;True;1,22699999809
IDK1985w;experiment;2017-01-31-14-39-48;4,0;13,0;100;2,0;3,0;0,0;1,0;column;1,0;False;False;False;1,56599998474;True;1,43499994278
IDK1985w;experiment;2017-01-31-14-39-48;4,0;14,0;100;0,0;2,0;1,0;3,0;column;1,0;True;False;False;1,0;False;1,29600000381
IDK1985w;experiment;2017-01-31-14-39-48;4,0;15,0;100;2,0;0,0;1,0;3,0;row;1,0;False;True;False;1,69799995422;True;0,5609998703
IDK1985w;experiment;2017-01-31-14-39-48;4,0;16,0;100;3,0;1,0;2,0;0,0;row;0,0;False;True;False;1,23300004005;True;0,764999866486
IDK1985w;experiment;2017-01-31-14-39-48;4,0;17,0;100;2,0;3,0;0,0;1,0;column;0,0;True;True;False;1,83299994469;False;1,06399989128
IDK1985w;experiment;2017-01-31-14-39-48;4,0;18,0;100;0,0;1,0;3,0;2,0;column;0,0;False;False;True;2,13399982452;False;1,26700019836
IDK1985w;experiment;2017-01-31-14-39-48;4,0;19,0;100;3,0;1,0;0,0;2,0;row;1,0;True;True;True;3,46700000763;True;1,02699995041
IDK1985w;experiment;2017-01-31-14-39-48;4,0;20,0;100;2,0;0,0;1,0;3,0;column;0,0;True;False;False;4,26400017738;False;0,829999923706
IDK1985w;experiment;2017-01-31-14-39-48;4,0;21,0;100;0,0;1,0;3,0;2,0;row;0,0;False;True;True;1,46399998665;False;1,3259999752
IDK1985w;experiment;2017-01-31-14-39-48;4,0;22,0;100;1,0;2,0;0,0;3,0;row;0,0;True;False;True;1,19899988174;True;1,26799988747
IDK1985w;experiment;2017-01-31-14-39-48;4,0;23,0;100;3,0;2,0;0,0;1,0;row;0,0;True;True;True;1,83200001717;True;1,06300020218
IDK1985w;experiment;2017-01-31-14-39-48;4,0;24,0;100;3,0;2,0;0,0;1,0;column;0,0;False;True;False;2,59899997711;True;1,16100001335
IDK1985w;experiment;2017-01-31-14-39-48;4,0;25,0;100;3,0;0,0;1,0;2,0;row;1,0;True;False;True;2,29999995232;True;0,93499994278
IDK1985w;experiment;2017-01-31-14-39-48;4,0;26,0;100;1,0;3,0;0,0;2,0;column;0,0;False;False;True;2,69999980927;False;0,770999908447
IDK1985w;experiment;2017-01-31-14-39-48;4,0;27,0;100;2,0;1,0;0,0;3,0;row;1,0;False;False;False;3,46599984169;True;0,766000032425
IDK1985w;experiment;2017-01-31-14-39-48;4,0;28,0;100;1,0;2,0;0,0;3,0;column;1,0;True;False;False;2,13300013542;False;0,928999900818
IDK1985w;experiment;2017-01-31-14-39-48;4,0;29,0;100;0,0;1,0;2,0;3,0;column;0,0;False;True;False;1,93400001526;True;0,731999874115
IDK1985w;experiment;2017-01-31-14-39-48;4,0;30,0;100;3,0;0,0;2,0;1,0;row;0,0;True;False;True;1,23099994659;True;0,564999818802
IDK1985w;experiment;2017-01-31-14-39-48;4,0;31,0;100;3,0;0,0;2,0;1,0;column;1,0;True;False;True;2,9319999218;True;0,628000020981
IDK1985w;experiment;2017-01-31-14-39-48;4,0;32,0;100;1,0;0,0;2,0;3,0;row;1,0;False;True;False;1,90000009537;True;1,32899999619
IDK1985w;experiment;2017-01-31-14-39-48;4,0;33,0;100;3,0;2,0;1,0;0,0;row;0,0;True;False;True;0,900000095367;True;0,933000087738
IDK1985w;experiment;2017-01-31-14-39-48;4,0;34,0;100;0,0;2,0;3,0;1,0;column;1,0;True;True;True;1,33299994469;True;0,530999898911
IDK1985w;experiment;2017-01-31-14-39-48;4,0;35,0;100;3,0;0,0;2,0;1,0;column;1,0;False;True;True;2,06700015068;False;1,36800003052
IDK1985w;experiment;2017-01-31-14-39-48;4,0;36,0;100;0,0;3,0;2,0;1,0;column;1,0;False;False;False;2,46700000763;True;0,665999889374
IDK1985w;experiment;2017-01-31-14-39-48;4,0;37,0;100;1,0;0,0;2,0;3,0;column;0,0;False;True;False;1,69900012016;True;0,56200003624
IDK1985w;experiment;2017-01-31-14-39-48;4,0;38,0;100;0,0;2,0;3,0;1,0;row;0,0;True;True;True;1,132999897;True;1,14100003242
IDK1985w;experiment;2017-01-31-14-39-48;4,0;39,0;100;1,0;0,0;2,0;3,0;column;1,0;False;True;True;1,83200001717;False;1,46700000763
IDK1985w;experiment;2017-01-31-14-39-48;4,0;40,0;100;1,0;0,0;2,0;3,0;column;0,0;True;False;False;1,76600003242;False;0,930000066757
IDK1985w;experiment;2017-01-31-14-39-48;4,0;41,0;100;1,0;2,0;3,0;0,0;column;1,0;True;True;True;1,60000014305;True;1,06299996376
IDK1985w;experiment;2017-01-31-14-39-48;4,0;42,0;100;3,0;1,0;0,0;2,0;row;1,0;False;True;False;3,26600003242;True;1,19599986076
IDK1985w;experiment;2017-01-31-14-39-48;4,0;43,0;100;0,0;3,0;2,0;1,0;row;1,0;True;False;False;2,43300008774;False;0,803000211716
IDK1985w;experiment;2017-01-31-14-39-48;4,0;44,0;100;2,0;3,0;0,0;1,0;column;1,0;True;False;True;1,7009999752;True;0,526000022888
IDK1985w;experiment;2017-01-31-14-39-48;4,0;45,0;100;0,0;2,0;3,0;1,0;column;0,0;True;True;False;1,90000009537;False;0,763000011444
IDK1985w;experiment;2017-01-31-14-39-48;4,0;46,0;100;2,0;1,0;3,0;0,0;row;0,0;False;True;True;2,23300004005;False;0,966000080109
IDK1985w;experiment;2017-01-31-14-39-48;4,0;47,0;100;1,0;3,0;2,0;0,0;column;0,0;False;False;True;1,56700015068;False;1,42800021172
IDK1985w;experiment;2017-01-31-14-39-48;4,0;48,0;100;2,0;3,0;1,0;0,0;column;1,0;True;True;False;2,09899997711;False;1,10500001907
IDK1985w;experiment;2017-01-31-14-39-48;5,0;1,0;1000;2,0;3,0;1,0;0,0;column;0,0;False;True;False;1,89800000191;True;0,730000019073
IDK1985w;experiment;2017-01-31-14-39-48;5,0;2,0;1000;2,0;0,0;1,0;3,0;row;1,0;False;True;False;1,93300008774;True;1,4960000515
IDK1985w;experiment;2017-01-31-14-39-48;5,0;3,0;1000;0,0;3,0;1,0;2,0;row;1,0;True;True;True;1,06700015068;True;1,52700018883
IDK1985w;experiment;2017-01-31-14-39-48;5,0;4,0;1000;0,0;3,0;2,0;1,0;row;0,0;True;False;False;1,2009999752;False;1,42600011826
IDK1985w;experiment;2017-01-31-14-39-48;5,0;5,0;1000;2,0;1,0;0,0;3,0;row;1,0;True;False;False;1,56500005722;False;1,05999994278
IDK1985w;experiment;2017-01-31-14-39-48;5,0;6,0;1000;0,0;1,0;3,0;2,0;column;1,0;True;True;False;1,03399991989;False;0,62900018692
IDK1985w;experiment;2017-01-31-14-39-48;5,0;7,0;1000;1,0;3,0;2,0;0,0;row;0,0;False;True;False;2,46599984169;True;0,734000205994
IDK1985w;experiment;2017-01-31-14-39-48;5,0;8,0;1000;2,0;1,0;0,0;3,0;row;1,0;False;True;False;3,5;True;0,825000047684
IDK1985w;experiment;2017-01-31-14-39-48;5,0;9,0;1000;3,0;1,0;2,0;0,0;row;0,0;True;False;True;0,832999944687;True;0,892999887466
IDK1985w;experiment;2017-01-31-14-39-48;5,0;10,0;1000;0,0;2,0;1,0;3,0;row;0,0;True;True;True;1,26699995995;True;1,09899997711
IDK1985w;experiment;2017-01-31-14-39-48;5,0;11,0;1000;2,0;1,0;0,0;3,0;column;1,0;False;False;True;1,39800000191;False;0,667999982834
IDK1985w;experiment;2017-01-31-14-39-48;5,0;12,0;1000;1,0;0,0;2,0;3,0;column;1,0;True;True;True;2,43299984932;True;0,565999984741
IDK1985w;experiment;2017-01-31-14-39-48;5,0;13,0;1000;3,0;0,0;1,0;2,0;row;0,0;True;True;True;1,60000014305;True;0,871999979019
IDK1985w;experiment;2017-01-31-14-39-48;5,0;14,0;1000;2,0;3,0;0,0;1,0;column;0,0;False;True;False;1,46700000763;True;1,49599981308
IDK1985w;experiment;2017-01-31-14-39-48;5,0;15,0;1000;0,0;2,0;3,0;1,0;row;0,0;True;False;True;0,898999929428;True;1,33600020409
IDK1985w;experiment;2017-01-31-14-39-48;5,0;16,0;1000;2,0;0,0;1,0;3,0;column;0,0;True;True;True;1,26600003242;True;0,59500002861
IDK1985w;experiment;2017-01-31-14-39-48;5,0;17,0;1000;2,0;3,0;1,0;0,0;column;1,0;True;False;True;2,09999990463;True;1,05900001526
IDK1985w;experiment;2017-01-31-14-39-48;5,0;18,0;1000;0,0;2,0;1,0;3,0;column;1,0;True;False;False;0,767000198364;False;1,45899987221
IDK1985w;experiment;2017-01-31-14-39-48;5,0;19,0;1000;3,0;1,0;2,0;0,0;row;0,0;False;True;False;1,26699995995;True;1,03000020981
IDK1985w;experiment;2017-01-31-14-39-48;5,0;20,0;1000;0,0;1,0;2,0;3,0;row;1,0;False;True;False;1,60000014305;True;1,19999980927
IDK1985w;experiment;2017-01-31-14-39-48;5,0;21,0;1000;2,0;0,0;1,0;3,0;row;0,0;False;True;False;1,39800000191;True;1,46299982071
IDK1985w;experiment;2017-01-31-14-39-48;5,0;22,0;1000;1,0;2,0;0,0;3,0;row;1,0;True;False;False;1,63100004196;False;0,728999853134
IDK1985w;experiment;2017-01-31-14-39-48;5,0;23,0;1000;3,0;2,0;1,0;0,0;column;1,0;True;True;True;1,53399991989;True;0,927999973297
IDK1985w;experiment;2017-01-31-14-39-48;5,0;24,0;1000;1,0;0,0;2,0;3,0;row;0,0;True;True;True;0,866999864578;True;0,796000003815
IDK1985w;experiment;2017-01-31-14-39-48;5,0;25,0;1000;2,0;3,0;0,0;1,0;row;0,0;False;True;False;1,26600003242;True;1,33400011063
IDK1985w;experiment;2017-01-31-14-39-48;5,0;26,0;1000;0,0;2,0;3,0;1,0;column;1,0;True;True;True;1,89999985695;True;0,509000062943
IDK1985w;experiment;2017-01-31-14-39-48;5,0;27,0;1000;3,0;2,0;1,0;0,0;row;1,0;True;True;False;1,93200016022;False;0,572000026703
IDK1985w;experiment;2017-01-31-14-39-48;5,0;28,0;1000;0,0;2,0;1,0;3,0;row;1,0;False;True;False;1,59999990463;True;1,06799983978
IDK1985w;experiment;2017-01-31-14-39-48;5,0;29,0;1000;2,0;0,0;3,0;1,0;column;0,0;False;False;False;1,29999995232;True;0,662000179291
IDK1985w;experiment;2017-01-31-14-39-48;5,0;30,0;1000;2,0;0,0;1,0;3,0;column;0,0;False;True;False;1,33400011063;True;0,970999956131
IDK1985w;experiment;2017-01-31-14-39-48;5,0;31,0;1000;3,0;0,0;2,0;1,0;row;1,0;True;True;True;2,09899997711;True;1,36999988556
IDK1985w;experiment;2017-01-31-14-39-48;5,0;32,0;1000;1,0;2,0;3,0;0,0;row;1,0;True;True;False;1,83299994469;False;1,49400019646
IDK1985w;experiment;2017-01-31-14-39-48;5,0;33,0;1000;3,0;2,0;0,0;1,0;column;1,0;True;False;False;1,03399991989;False;0,52999997139
IDK1985w;experiment;2017-01-31-14-39-48;5,0;34,0;1000;2,0;1,0;3,0;0,0;row;1,0;True;False;False;1,23399996758;False;1,03800010681
IDK1985w;experiment;2017-01-31-14-39-48;5,0;35,0;1000;1,0;3,0;2,0;0,0;row;0,0;True;True;True;1,7009999752;True;1,50199985504
IDK1985w;experiment;2017-01-31-14-39-48;5,0;36,0;1000;3,0;0,0;1,0;2,0;column;1,0;False;True;False;3,29799985886;True;0,901000022888
IDK1985w;experiment;2017-01-31-14-39-48;5,0;37,0;1000;3,0;2,0;0,0;1,0;row;1,0;False;True;True;1,26699995995;False;1,33299994469
IDK1985w;experiment;2017-01-31-14-39-48;5,0;38,0;1000;1,0;0,0;3,0;2,0;row;0,0;True;False;False;1,2009999752;False;0,631000041962
IDK1985w;experiment;2017-01-31-14-39-48;5,0;39,0;1000;3,0;2,0;1,0;0,0;row;1,0;False;True;True;0,966000080109;False;0,823999881744
IDK1985w;experiment;2017-01-31-14-39-48;5,0;40,0;1000;1,0;3,0;2,0;0,0;column;0,0;False;False;False;1,46600008011;True;0,976999998093
IDK1985w;experiment;2017-01-31-14-39-48;5,0;41,0;1000;0,0;1,0;3,0;2,0;row;1,0;True;True;True;1,33200001717;True;0,661000013351
IDK1985w;experiment;2017-01-31-14-39-48;5,0;42,0;1000;0,0;3,0;1,0;2,0;row;0,0;True;True;True;0,799999952316;True;0,59600019455
IDK1985w;experiment;2017-01-31-14-39-48;5,0;43,0;1000;1,0;3,0;2,0;0,0;row;1,0;True;True;False;1,13400006294;False;1,29600000381
IDK1985w;experiment;2017-01-31-14-39-48;5,0;44,0;1000;0,0;1,0;3,0;2,0;column;1,0;False;True;False;1,43299984932;True;0,993000030518
IDK1985w;experiment;2017-01-31-14-39-48;5,0;45,0;1000;2,0;1,0;0,0;3,0;column;0,0;False;True;True;1,0;False;0,802000045776
IDK1985w;experiment;2017-01-31-14-39-48;5,0;46,0;1000;1,0;3,0;0,0;2,0;column;1,0;True;False;True;1,16499996185;True;1,26999998093
IDK1985w;experiment;2017-01-31-14-39-48;5,0;47,0;1000;3,0;0,0;2,0;1,0;row;0,0;False;False;False;0,931999921799;True;0,566999912262
IDK1985w;experiment;2017-01-31-14-39-48;5,0;48,0;1000;0,0;3,0;2,0;1,0;row;0,0;False;False;False;2,46700000763;True;0,860999822617
IDK1985w;experiment;2017-01-31-14-39-48;6,0;1,0;-100;1,0;2,0;3,0;0,0;row;1,0;False;False;False;1,71700000763;True;0,697999954224
IDK1985w;experiment;2017-01-31-14-39-48;6,0;2,0;-100;0,0;2,0;1,0;3,0;row;0,0;False;True;False;1,92499995232;True;1,03200006485
IDK1985w;experiment;2017-01-31-14-39-48;6,0;3,0;-100;3,0;2,0;1,0;0,0;row;1,0;True;False;True;1,81700015068;True;0,963000059128
IDK1985w;experiment;2017-01-31-14-39-48;6,0;4,0;-100;3,0;2,0;1,0;0,0;row;0,0;True;False;True;1,68400001526;True;0,52999997139
IDK1985w;experiment;2017-01-31-14-39-48;6,0;5,0;-100;3,0;0,0;2,0;1,0;column;1,0;False;True;False;1,58000016212;True;1,17000007629
IDK1985w;experiment;2017-01-31-14-39-48;6,0;6,0;-100;0,0;2,0;3,0;1,0;column;1,0;False;False;False;1,5490000248;True;0,669000148773
IDK1985w;experiment;2017-01-31-14-39-48;6,0;7,0;-100;0,0;3,0;2,0;1,0;column;1,0;True;False;False;1,61599993706;False;0,898000001907
IDK1985w;experiment;2017-01-31-14-39-48;6,0;8,0;-100;1,0;3,0;2,0;0,0;column;0,0;False;True;True;1,71700000763;False;1,10399985313
IDK1985w;experiment;2017-01-31-14-39-48;6,0;9,0;-100;3,0;2,0;0,0;1,0;column;0,0;False;True;False;2,21600008011;True;0,563999891281
IDK1985w;experiment;2017-01-31-14-39-48;6,0;10,0;-100;3,0;1,0;0,0;2,0;column;0,0;False;True;False;2,91700005531;True;0,927000045776
IDK1985w;experiment;2017-01-31-14-39-48;6,0;11,0;-100;0,0;2,0;1,0;3,0;column;0,0;True;False;True;1,31699991226;True;1,3599998951
IDK1985w;experiment;2017-01-31-14-39-48;6,0;12,0;-100;3,0;0,0;1,0;2,0;row;0,0;False;True;False;2,382999897;True;1,39800000191
IDK1985w;experiment;2017-01-31-14-39-48;6,0;13,0;-100;1,0;2,0;0,0;3,0;row;1,0;True;True;False;2,24899983406;False;0,893000125885
IDK1985w;experiment;2017-01-31-14-39-48;6,0;14,0;-100;2,0;1,0;0,0;3,0;row;0,0;False;False;False;1,4849998951;True;1,02600002289
IDK1985w;experiment;2017-01-31-14-39-48;6,0;15,0;-100;1,0;0,0;2,0;3,0;row;1,0;True;True;True;1,75699996948;True;0,661999940872
IDK1985w;experiment;2017-01-31-14-39-48;6,0;16,0;-100;2,0;0,0;3,0;1,0;row;1,0;False;True;False;1,94900012016;True;0,727999925613
IDK1985w;experiment;2017-01-31-14-39-48;6,0;17,0;-100;0,0;2,0;3,0;1,0;column;0,0;False;True;False;1,75;True;1,06100010872
IDK1985w;experiment;2017-01-31-14-39-48;6,0;18,0;-100;0,0;2,0;3,0;1,0;row;0,0;False;False;True;1,44999980927;False;0,927999973297
IDK1985w;experiment;2017-01-31-14-39-48;6,0;19,0;-100;3,0;2,0;0,0;1,0;row;1,0;False;True;False;1,71599984169;True;1,22800016403
IDK1985w;experiment;2017-01-31-14-39-48;6,0;20,0;-100;2,0;1,0;0,0;3,0;column;0,0;True;True;False;1,98399996758;False;0,763000011444
IDK1985w;experiment;2017-01-31-14-39-48;6,0;21,0;-100;2,0;3,0;0,0;1,0;row;0,0;False;False;False;1,81599998474;True;1,43600010872
IDK1985w;experiment;2017-01-31-14-39-48;6,0;22,0;-100;1,0;3,0;2,0;0,0;row;1,0;False;True;False;1,55099987984;True;0,769000053406
IDK1985w;experiment;2017-01-31-14-39-48;6,0;23,0;-100;1,0;2,0;0,0;3,0;column;1,0;True;True;False;1,34799981117;False;0,59700012207
IDK1985w;experiment;2017-01-31-14-39-48;6,0;24,0;-100;3,0;1,0;2,0;0,0;row;0,0;True;True;True;1,08100008965;True;0,938999891281
IDK1985w;experiment;2017-01-31-14-39-48;6,0;25,0;-100;2,0;3,0;0,0;1,0;row;0,0;True;False;True;1,24899983406;True;1,36000013351
IDK1985w;experiment;2017-01-31-14-39-48;6,0;26,0;-100;0,0;2,0;1,0;3,0;column;1,0;False;False;False;1,48200011253;True;1,25800013542
IDK1985w;experiment;2017-01-31-14-39-48;6,0;27,0;-100;2,0;0,0;3,0;1,0;column;1,0;True;False;False;1,38400006294;False;0,973000049591
IDK1985w;experiment;2017-01-31-14-39-48;6,0;28,0;-100;1,0;0,0;3,0;2,0;column;0,0;True;True;False;1,74799990654;False;0,932000160217
IDK1985w;experiment;2017-01-31-14-39-48;6,0;29,0;-100;0,0;1,0;2,0;3,0;row;1,0;True;False;True;1,61699986458;True;1,50499987602
IDK1985w;experiment;2017-01-31-14-39-48;6,0;30,0;-100;2,0;0,0;3,0;1,0;row;0,0;True;True;True;1,25;True;1,16799998283
IDK1985w;experiment;2017-01-31-14-39-48;6,0;31,0;-100;0,0;1,0;3,0;2,0;row;1,0;True;True;False;2,31600022316;False;0,5640001297
IDK1985w;experiment;2017-01-31-14-39-48;6,0;32,0;-100;2,0;3,0;0,0;1,0;column;0,0;True;False;True;1,71499991417;True;0,530999898911
IDK1985w;experiment;2017-01-31-14-39-48;6,0;33,0;-100;0,0;3,0;1,0;2,0;row;1,0;False;True;False;1,51600003242;True;0,694999933243
IDK1985w;experiment;2017-01-31-14-39-48;6,0;34,0;-100;0,0;2,0;3,0;1,0;row;0,0;True;False;True;1,38000011444;True;0,797999858856
IDK1985w;experiment;2017-01-31-14-39-48;6,0;35,0;-100;0,0;1,0;2,0;3,0;column;0,0;True;True;False;1,31700015068;False;0,832999944687
IDK1985w;experiment;2017-01-31-14-39-48;6,0;36,0;-100;3,0;0,0;1,0;2,0;row;1,0;True;True;False;1,28200006485;False;0,700000047684
IDK1985w;experiment;2017-01-31-14-39-48;6,0;37,0;-100;2,0;0,0;1,0;3,0;row;0,0;False;False;False;1,84999990463;True;1,39599990845
IDK1985w;experiment;2017-01-31-14-39-48;6,0;38,0;-100;2,0;1,0;0,0;3,0;row;0,0;True;True;True;1,8180000782;True;0,965000152588
IDK1985w;experiment;2017-01-31-14-39-48;6,0;39,0;-100;2,0;1,0;3,0;0,0;column;0,0;True;False;True;1,11600017548;True;1,36800003052
IDK1985w;experiment;2017-01-31-14-39-48;6,0;40,0;-100;1,0;3,0;0,0;2,0;column;1,0;False;False;True;1,25;False;0,995000123978
IDK1985w;experiment;2017-01-31-14-39-48;6,0;41,0;-100;3,0;1,0;0,0;2,0;row;1,0;True;False;False;1,14699983597;False;0,871999979019
IDK1985w;experiment;2017-01-31-14-39-48;6,0;42,0;-100;3,0;2,0;1,0;0,0;column;1,0;True;True;True;0,848999977112;True;0,634000062943
IDK1985w;experiment;2017-01-31-14-39-48;6,0;43,0;-100;3,0;1,0;2,0;0,0;column;1,0;False;False;False;1,11699986458;True;1,46499991417
IDK1985w;experiment;2017-01-31-14-39-48;6,0;44,0;-100;0,0;1,0;2,0;3,0;row;0,0;True;False;True;0,983000040054;True;1,40299987793
IDK1985w;experiment;2017-01-31-14-39-48;6,0;45,0;-100;2,0;1,0;0,0;3,0;column;0,0;False;True;True;0,915999889374;False;1,12900018692
IDK1985w;experiment;2017-01-31-14-39-48;6,0;46,0;-100;0,0;2,0;1,0;3,0;column;1,0;True;False;True;0,915000200272;True;0,629999876022
IDK1985w;experiment;2017-01-31-14-39-48;6,0;47,0;-100;1,0;0,0;3,0;2,0;row;1,0;True;False;False;1,1819999218;False;1,4960000515
IDK1985w;experiment;2017-01-31-14-39-48;6,0;48,0;-100;2,0;0,0;3,0;1,0;column;1,0;False;True;False;1,25099992752;True;1,26200008392
IDK1985w;experiment;2017-01-31-14-39-48;7,0;1,0;-100;2,0;0,0;1,0;3,0;row;0,0;True;True;False;1,08300018311;False;1,19400000572
IDK1985w;experiment;2017-01-31-14-39-48;7,0;2,0;-100;3,0;2,0;0,0;1,0;row;0,0;True;True;True;0,880000114441;True;1,29399991035
IDK1985w;experiment;2017-01-31-14-39-48;7,0;3,0;-100;0,0;3,0;2,0;1,0;column;1,0;False;True;True;1,24899983406;False;0,996000051498
IDK1985w;experiment;2017-01-31-14-39-48;7,0;4,0;-100;3,0;2,0;1,0;0,0;column;0,0;True;True;True;1,18200016022;True;1,03999996185
IDK1985w;experiment;2017-01-31-14-39-48;7,0;5,0;-100;3,0;0,0;2,0;1,0;column;0,0;True;True;True;0,980999946594;True;0,761000156403
IDK1985w;experiment;2017-01-31-14-39-48;7,0;6,0;-100;3,0;0,0;1,0;2,0;column;0,0;True;True;False;0,983000040054;False;1,47099995613
IDK1985w;experiment;2017-01-31-14-39-48;7,0;7,0;-100;1,0;3,0;0,0;2,0;column;1,0;True;False;True;0,983000040054;True;0,865000009537
IDK1985w;experiment;2017-01-31-14-39-48;7,0;8,0;-100;1,0;3,0;0,0;2,0;column;0,0;True;False;True;1,58300018311;True;1,26699995995
IDK1985w;experiment;2017-01-31-14-39-48;7,0;9,0;-100;0,0;1,0;3,0;2,0;row;1,0;False;True;False;0,883000135422;True;0,56200003624
IDK1985w;experiment;2017-01-31-14-39-48;7,0;10,0;-100;2,0;1,0;3,0;0,0;row;0,0;True;False;False;0,949000120163;False;1,26300001144
IDK1985w;experiment;2017-01-31-14-39-48;7,0;11,0;-100;1,0;0,0;2,0;3,0;column;0,0;True;False;False;1,01600003242;False;1,4960000515
IDK1985w;experiment;2017-01-31-14-39-48;7,0;12,0;-100;3,0;1,0;2,0;0,0;row;1,0;False;False;True;1,117000103;False;0,531000137329
IDK1985w;experiment;2017-01-31-14-39-48;7,0;13,0;-100;2,0;1,0;3,0;0,0;row;0,0;False;True;False;1,25;True;0,996999979019
IDK1985w;experiment;2017-01-31-14-39-48;7,0;14,0;-100;2,0;1,0;3,0;0,0;row;1,0;False;True;True;0,982999801636;False;0,703999996185
IDK1985w;experiment;2017-01-31-14-39-48;7,0;15,0;-100;3,0;1,0;0,0;2,0;row;1,0;False;False;True;1,81599998474;False;1,29399991035
IDK1985w;experiment;2017-01-31-14-39-48;7,0;16,0;-100;0,0;2,0;3,0;1,0;column;1,0;True;False;False;1,08299994469;False;1,19600009918
IDK1985w;experiment;2017-01-31-14-39-48;7,0;17,0;-100;0,0;1,0;3,0;2,0;column;1,0;False;False;False;1,41400003433;True;0,860999822617
IDK1985w;experiment;2017-01-31-14-39-48;7,0;18,0;-100;1,0;0,0;3,0;2,0;row;0,0;False;True;True;0,881000041962;False;1,4279999733
IDK1985w;experiment;2017-01-31-14-39-48;7,0;19,0;-100;0,0;1,0;3,0;2,0;column;1,0;True;False;True;1,40000009537;True;0,996000051498
IDK1985w;experiment;2017-01-31-14-39-48;7,0;20,0;-100;0,0;2,0;3,0;1,0;row;1,0;False;False;False;0,783999919891;True;0,529000043869
IDK1985w;experiment;2017-01-31-14-39-48;7,0;21,0;-100;2,0;3,0;0,0;1,0;row;1,0;True;True;True;1,08299994469;True;0,569999933243
IDK1985w;experiment;2017-01-31-14-39-48;7,0;22,0;-100;1,0;3,0;2,0;0,0;row;1,0;True;False;True;1,01600003242;True;1,19600009918
IDK1985w;experiment;2017-01-31-14-39-48;7,0;23,0;-100;2,0;1,0;3,0;0,0;column;0,0;False;False;False;1,08299994469;True;1,33500003815
IDK1985w;experiment;2017-01-31-14-39-48;7,0;24,0;-100;1,0;0,0;3,0;2,0;row;0,0;True;True;True;1,01299977303;True;0,703999996185
IDK1985w;experiment;2017-01-31-14-39-48;7,0;25,0;-100;0,0;3,0;1,0;2,0;column;1,0;False;True;True;0,884000062943;False;0,930000066757
IDK1985w;experiment;2017-01-31-14-39-48;7,0;26,0;-100;3,0;1,0;2,0;0,0;column;0,0;False;True;True;1,18300008774;False;1,0039999485
IDK1985w;experiment;2017-01-31-14-39-48;7,0;27,0;-100;3,0;2,0;0,0;1,0;row;1,0;True;True;False;1,11500000954;False;0,528000116348
IDK1985w;experiment;2017-01-31-14-39-48;7,0;28,0;-100;1,0;2,0;3,0;0,0;row;1,0;True;True;False;1,11599993706;False;0,799999952316
IDK1985w;experiment;2017-01-31-14-39-48;7,0;29,0;-100;2,0;3,0;1,0;0,0;row;0,0;True;False;True;1,21500015259;True;0,663999795914
IDK1985w;experiment;2017-01-31-14-39-48;7,0;30,0;-100;2,0;1,0;0,0;3,0;column;1,0;True;True;True;0,849999904633;True;0,726999998093
IDK1985w;experiment;2017-01-31-14-39-48;7,0;31,0;-100;3,0;2,0;0,0;1,0;column;1,0;True;False;True;1,15100002289;True;0,604000091553
IDK1985w;experiment;2017-01-31-14-39-48;7,0;32,0;-100;2,0;0,0;1,0;3,0;column;1,0;False;False;False;1,18299984932;True;0,960999965668
IDK1985w;experiment;2017-01-31-14-39-48;7,0;33,0;-100;3,0;1,0;2,0;0,0;row;0,0;False;False;True;1,07999992371;False;0,966000080109
IDK1985w;experiment;2017-01-31-14-39-48;7,0;34,0;-100;2,0;3,0;1,0;0,0;row;0,0;False;True;False;1,01600003242;True;1,2990000248
IDK1985w;experiment;2017-01-31-14-39-48;7,0;35,0;-100;1,0;0,0;2,0;3,0;column;1,0;False;False;False;0,950999975204;True;1,26499986649
IDK1985w;experiment;2017-01-31-14-39-48;7,0;36,0;-100;2,0;3,0;0,0;1,0;column;0,0;False;True;True;0,881999969482;False;1,33899998665
IDK1985w;experiment;2017-01-31-14-39-48;7,0;37,0;-100;3,0;2,0;0,0;1,0;column;0,0;True;False;True;0,716000080109;True;1,29699993134
IDK1985w;experiment;2017-01-31-14-39-48;7,0;38,0;-100;2,0;1,0;0,0;3,0;row;1,0;False;True;False;1,15000009537;True;1,50099992752
IDK1985w;experiment;2017-01-31-14-39-48;7,0;39,0;-100;2,0;3,0;1,0;0,0;column;0,0;True;True;True;0,848999977112;True;1,49899983406
IDK1985w;experiment;2017-01-31-14-39-48;7,0;40,0;-100;1,0;0,0;3,0;2,0;column;1,0;True;True;False;0,815999984741;False;0,628999948502
IDK1985w;experiment;2017-01-31-14-39-48;7,0;41,0;-100;0,0;2,0;3,0;1,0;row;1,0;True;False;False;0,882999897003;False;1,23000001907
IDK1985w;experiment;2017-01-31-14-39-48;7,0;42,0;-100;0,0;3,0;1,0;2,0;column;1,0;True;False;True;0,815999984741;True;0,59500002861
IDK1985w;experiment;2017-01-31-14-39-48;7,0;43,0;-100;3,0;1,0;2,0;0,0;row;1,0;True;True;False;0,783999919891;False;1,32999992371
IDK1985w;experiment;2017-01-31-14-39-48;7,0;44,0;-100;0,0;1,0;2,0;3,0;column;1,0;True;True;True;0,849999904633;True;0,702999830246
IDK1985w;experiment;2017-01-31-14-39-48;7,0;45,0;-100;2,0;0,0;1,0;3,0;column;0,0;True;True;False;0,81500005722;False;0,531999826431
IDK1985w;experiment;2017-01-31-14-39-48;7,0;46,0;-100;3,0;1,0;0,0;2,0;row;0,0;False;True;False;1,34899997711;True;0,862999916077
IDK1985w;experiment;2017-01-31-14-39-48;7,0;47,0;-100;2,0;0,0;1,0;3,0;row;1,0;True;False;False;1,11599993706;False;0,664000034332
IDK1985w;experiment;2017-01-31-14-39-48;7,0;48,0;-100;0,0;1,0;2,0;3,0;row;0,0;False;True;True;0,748999834061;False;0,806999921799
IDK1985w;experiment;2017-01-31-14-39-48;8,0;1,0;1000;0,0;3,0;1,0;2,0;column;1,0;False;False;False;1,867000103;True;0,773999929428
IDK1985w;experiment;2017-01-31-14-39-48;8,0;2,0;1000;1,0;0,0;2,0;3,0;column;0,0;True;False;False;1,79999995232;False;0,595999956131
IDK1985w;experiment;2017-01-31-14-39-48;8,0;3,0;1000;0,0;1,0;3,0;2,0;column;0,0;True;True;True;1,06700015068;True;0,860999822617
IDK1985w;experiment;2017-01-31-14-39-48;8,0;4,0;1000;0,0;2,0;1,0;3,0;column;0,0;False;True;False;1,10000014305;True;0,62700009346
IDK1985w;experiment;2017-01-31-14-39-48;8,0;5,0;1000;2,0;0,0;3,0;1,0;column;1,0;False;False;False;1,66700005531;True;0,563000202179
IDK1985w;experiment;2017-01-31-14-39-48;8,0;6,0;1000;2,0;1,0;3,0;0,0;column;0,0;False;False;False;1,53299999237;True;1,26900005341
IDK1985w;experiment;2017-01-31-14-39-48;8,0;7,0;1000;3,0;0,0;2,0;1,0;column;1,0;True;False;True;1,56699991226;True;1,09599995613
IDK1985w;experiment;2017-01-31-14-39-48;8,0;8,0;1000;3,0;0,0;1,0;2,0;row;1,0;False;True;False;1,367000103;True;0,59600019455
IDK1985w;experiment;2017-01-31-14-39-48;8,0;9,0;1000;2,0;1,0;3,0;0,0;row;1,0;False;False;False;1,0;True;1,16899991035
IDK1985w;experiment;2017-01-31-14-39-48;8,0;10,0;1000;0,0;2,0;3,0;1,0;row;1,0;False;True;False;2,2990000248;True;1,29299998283
IDK1985w;experiment;2017-01-31-14-39-48;8,0;11,0;1000;0,0;2,0;3,0;1,0;column;0,0;False;True;True;0,967000007629;False;0,603000164032
IDK1985w;experiment;2017-01-31-14-39-48;8,0;12,0;1000;3,0;2,0;0,0;1,0;row;0,0;False;True;False;1,10000014305;True;1,10400009155
IDK1985w;experiment;2017-01-31-14-39-48;8,0;13,0;1000;1,0;2,0;3,0;0,0;column;0,0;True;False;True;0,932999849319;True;0,703999996185
IDK1985w;experiment;2017-01-31-14-39-48;8,0;14,0;1000;0,0;3,0;2,0;1,0;row;1,0;False;False;False;1,66700005531;True;1,03699994087
IDK1985w;experiment;2017-01-31-14-39-48;8,0;15,0;1000;1,0;2,0;0,0;3,0;row;0,0;False;False;False;1,40000009537;True;1,33599996567
IDK1985w;experiment;2017-01-31-14-39-48;8,0;16,0;1000;3,0;2,0;1,0;0,0;column;0,0;False;True;False;1,83399987221;True;0,690999984741
IDK1985w;experiment;2017-01-31-14-39-48;8,0;17,0;1000;3,0;0,0;1,0;2,0;column;0,0;False;True;False;1,36400008202;True;1,07100009918
IDK1985w;experiment;2017-01-31-14-39-48;8,0;18,0;1000;0,0;2,0;1,0;3,0;column;0,0;True;False;True;0,700000047684;True;0,767000198364
IDK1985w;experiment;2017-01-31-14-39-48;8,0;19,0;1000;1,0;3,0;2,0;0,0;column;1,0;False;False;False;1,26700019836;True;1,40300011635
IDK1985w;experiment;2017-01-31-14-39-48;8,0;20,0;1000;0,0;3,0;2,0;1,0;column;0,0;False;True;False;1,20000004768;True;1,20200014114
IDK1985w;experiment;2017-01-31-14-39-48;8,0;21,0;1000;2,0;3,0;0,0;1,0;row;0,0;True;True;False;1,26699995995;False;1,12400007248
IDK1985w;experiment;2017-01-31-14-39-48;8,0;22,0;1000;1,0;3,0;2,0;0,0;row;1,0;False;True;False;1,59999990463;True;1,23000001907
IDK1985w;experiment;2017-01-31-14-39-48;8,0;23,0;1000;1,0;3,0;0,0;2,0;column;0,0;False;True;False;1,10000014305;True;1,46200013161
IDK1985w;experiment;2017-01-31-14-39-48;8,0;24,0;1000;2,0;3,0;0,0;1,0;column;1,0;False;False;False;0,967000007629;True;0,969000101089
IDK1985w;experiment;2017-01-31-14-39-48;8,0;25,0;1000;0,0;3,0;1,0;2,0;row;0,0;False;False;True;1,5;False;0,693000078201
IDK1985w;experiment;2017-01-31-14-39-48;8,0;26,0;1000;3,0;0,0;2,0;1,0;column;1,0;False;False;False;1,03299999237;True;1,1289999485
IDK1985w;experiment;2017-01-31-14-39-48;8,0;27,0;1000;2,0;3,0;1,0;0,0;row;0,0;True;True;False;1,33399987221;False;1,32299995422
IDK1985w;experiment;2017-01-31-14-39-48;8,0;28,0;1000;1,0;0,0;3,0;2,0;column;1,0;False;False;False;1,33100008965;True;1,26600003242
IDK1985w;experiment;2017-01-31-14-39-48;8,0;29,0;1000;3,0;1,0;0,0;2,0;column;0,0;False;True;False;1,10000014305;True;0,729999780655
IDK1985w;experiment;2017-01-31-14-39-48;8,0;30,0;1000;0,0;1,0;2,0;3,0;column;0,0;True;False;False;1,10000014305;False;0,628999948502
IDK1985w;experiment;2017-01-31-14-39-48;8,0;31,0;1000;1,0;0,0;2,0;3,0;row;1,0;True;True;True;1,26800012589;True;0,963000059128
IDK1985w;experiment;2017-01-31-14-39-48;8,0;32,0;1000;2,0;1,0;3,0;0,0;column;1,0;False;True;False;0,900000095367;True;1,16999983788
IDK1985w;experiment;2017-01-31-14-39-48;8,0;33,0;1000;3,0;1,0;0,0;2,0;column;1,0;False;False;False;0,864000082016;True;0,729000091553
IDK1985w;experiment;2017-01-31-14-39-48;8,0;34,0;1000;2,0;0,0;3,0;1,0;column;1,0;True;False;False;0,934000015259;False;0,804000139236
IDK1985w;experiment;2017-01-31-14-39-48;8,0;35,0;1000;2,0;1,0;0,0;3,0;column;1,0;True;False;False;1,06599998474;False;1,49300003052
IDK1985w;experiment;2017-01-31-14-39-48;8,0;36,0;1000;0,0;2,0;3,0;1,0;row;1,0;True;False;False;1,03399991989;False;1,06100010872
IDK1985w;experiment;2017-01-31-14-39-48;8,0;37,0;1000;2,0;3,0;1,0;0,0;column;1,0;False;True;False;1,03400015831;True;0,737999916077
IDK1985w;experiment;2017-01-31-14-39-48;8,0;38,0;1000;1,0;0,0;2,0;3,0;column;1,0;False;True;True;1,16700005531;False;0,663999795914
IDK1985w;experiment;2017-01-31-14-39-48;8,0;39,0;1000;0,0;2,0;3,0;1,0;row;0,0;False;False;False;0,930999994278;True;1,29600000381
IDK1985w;experiment;2017-01-31-14-39-48;8,0;40,0;1000;0,0;1,0;3,0;2,0;column;0,0;False;False;True;0,700000047684;False;1,02899980545
IDK1985w;experiment;2017-01-31-14-39-48;8,0;41,0;1000;3,0;2,0;0,0;1,0;row;1,0;True;True;False;1,06699991226;False;0,993000030518
IDK1985w;experiment;2017-01-31-14-39-48;8,0;42,0;1000;3,0;1,0;0,0;2,0;row;0,0;True;True;True;0,766999959946;True;1,03100013733
IDK1985w;experiment;2017-01-31-14-39-48;8,0;43,0;1000;0,0;1,0;3,0;2,0;row;0,0;False;False;False;0,935000181198;True;0,638000011444
IDK1985w;experiment;2017-01-31-14-39-48;8,0;44,0;1000;0,0;1,0;2,0;3,0;row;0,0;False;False;False;0,799999952316;True;1,30400013924
IDK1985w;experiment;2017-01-31-14-39-48;8,0;45,0;1000;1,0;2,0;0,0;3,0;row;1,0;False;True;False;0,834000110626;True;0,634999990463
IDK1985w;experiment;2017-01-31-14-39-48;8,0;46,0;1000;1,0;3,0;0,0;2,0;column;1,0;False;False;False;0,699999809265;True;1,39800000191
IDK1985w;experiment;2017-01-31-14-39-48;8,0;47,0;1000;1,0;0,0;3,0;2,0;column;0,0;True;True;False;0,533999919891;False;0,968999862671
IDK1985w;experiment;2017-01-31-14-39-48;8,0;48,0;1000;2,0;3,0;0,0;1,0;column;1,0;True;False;True;0,933000087738;True;0,934000015259
IDK1985w;experiment;2017-01-31-14-39-48;9,0;1,0;100;0,0;1,0;3,0;2,0;column;0,0;True;True;False;1,79999995232;False;0,699000120163
IDK1985w;experiment;2017-01-31-14-39-48;9,0;2,0;100;3,0;1,0;0,0;2,0;row;0,0;False;True;False;1,33200001717;True;0,670000076294
IDK1985w;experiment;2017-01-31-14-39-48;9,0;3,0;100;1,0;2,0;0,0;3,0;row;0,0;False;False;True;1,23300004005;False;1,36899995804
IDK1985w;experiment;2017-01-31-14-39-48;9,0;4,0;100;1,0;3,0;2,0;0,0;row;0,0;True;True;True;1,26699995995;True;1,36500000954
IDK1985w;experiment;2017-01-31-14-39-48;9,0;5,0;100;0,0;3,0;1,0;2,0;row;1,0;False;True;False;1,46700000763;True;1,19600009918
IDK1985w;experiment;2017-01-31-14-39-48;9,0;6,0;100;3,0;2,0;1,0;0,0;row;1,0;True;True;True;1,132999897;True;0,930000066757
IDK1985w;experiment;2017-01-31-14-39-48;9,0;7,0;100;2,0;0,0;1,0;3,0;column;0,0;False;True;False;1,26699995995;True;1,03800010681
IDK1985w;experiment;2017-01-31-14-39-48;9,0;8,0;100;1,0;2,0;3,0;0,0;row;1,0;False;False;False;1,79999995232;True;0,531000137329
IDK1985w;experiment;2017-01-31-14-39-48;9,0;9,0;100;0,0;3,0;1,0;2,0;column;0,0;True;True;True;1,33399987221;True;0,898000001907
IDK1985w;experiment;2017-01-31-14-39-48;9,0;10,0;100;1,0;3,0;2,0;0,0;column;1,0;True;False;False;1,43300008774;False;1,42900013924
IDK1985w;experiment;2017-01-31-14-39-48;9,0;11,0;100;1,0;0,0;3,0;2,0;row;0,0;True;True;True;1,16799998283;True;0,995000123978
IDK1985w;experiment;2017-01-31-14-39-48;9,0;12,0;100;1,0;2,0;3,0;0,0;row;0,0;False;False;False;1,46700000763;True;1,39700007439
IDK1985w;experiment;2017-01-31-14-39-48;9,0;13,0;100;0,0;3,0;1,0;2,0;row;0,0;False;False;False;1,10000014305;True;1,11599993706
IDK1985w;experiment;2017-01-31-14-39-48;9,0;14,0;100;0,0;2,0;3,0;1,0;row;1,0;False;True;False;0,933000087738;True;1,26300001144
IDK1985w;experiment;2017-01-31-14-39-48;9,0;15,0;100;0,0;1,0;2,0;3,0;row;1,0;True;True;True;0,932999849319;True;1,09699988365
IDK1985w;experiment;2017-01-31-14-39-48;9,0;16,0;100;3,0;2,0;0,0;1,0;column;1,0;True;True;True;0,965000152588;True;1,07500004768
IDK1985w;experiment;2017-01-31-14-39-48;9,0;17,0;100;2,0;1,0;3,0;0,0;column;1,0;True;False;False;1,0;False;0,666000127792
IDK1985w;experiment;2017-01-31-14-39-48;9,0;18,0;100;3,0;0,0;1,0;2,0;row;0,0;False;False;False;0,900000095367;True;0,533999919891
IDK1985w;experiment;2017-01-31-14-39-48;9,0;19,0;100;1,0;3,0;0,0;2,0;row;1,0;False;True;True;1,26700019836;False;1,16400003433
IDK1985w;experiment;2017-01-31-14-39-48;9,0;20,0;100;0,0;1,0;3,0;2,0;column;1,0;False;True;False;1,03299999237;True;1,39300012589
IDK1985w;experiment;2017-01-31-14-39-48;9,0;21,0;100;0,0;3,0;2,0;1,0;column;0,0;False;True;False;1,33299994469;True;0,638000011444
IDK1985w;experiment;2017-01-31-14-39-48;9,0;22,0;100;3,0;1,0;2,0;0,0;row;1,0;False;False;False;0,900000095367;True;0,593999862671
IDK1985w;experiment;2017-01-31-14-39-48;9,0;23,0;100;3,0;2,0;1,0;0,0;column;1,0;False;False;False;0,933000087738;True;0,832000017166
IDK1985w;experiment;2017-01-31-14-39-48;9,0;24,0;100;1,0;3,0;0,0;2,0;column;0,0;True;True;False;0,96599984169;False;1,13100004196
IDK1985w;experiment;2017-01-31-14-39-48;9,0;25,0;100;2,0;3,0;0,0;1,0;row;1,0;False;True;False;1,63300013542;True;0,829999923706
IDK1985w;experiment;2017-01-31-14-39-48;9,0;26,0;100;0,0;1,0;2,0;3,0;row;0,0;True;True;True;0,766999959946;True;1,07000017166
IDK1985w;experiment;2017-01-31-14-39-48;9,0;27,0;100;1,0;2,0;3,0;0,0;column;0,0;True;True;True;1,16700005531;True;0,52899980545
IDK1985w;experiment;2017-01-31-14-39-48;9,0;28,0;100;0,0;2,0;1,0;3,0;row;0,0;True;False;True;1,03399991989;True;1,03200006485
IDK1985w;experiment;2017-01-31-14-39-48;9,0;29,0;100;3,0;1,0;0,0;2,0;column;1,0;True;True;False;1,33300018311;False;1,23399996758
IDK1985w;experiment;2017-01-31-14-39-48;9,0;30,0;100;2,0;1,0;3,0;0,0;row;1,0;True;False;True;0,901999950409;True;1,22799992561
IDK1985w;experiment;2017-01-31-14-39-48;9,0;31,0;100;2,0;3,0;1,0;0,0;row;0,0;False;True;False;0,866999864578;True;1,23099994659
IDK1985w;experiment;2017-01-31-14-39-48;9,0;32,0;100;1,0;2,0;0,0;3,0;column;0,0;True;True;False;1,20000004768;False;0,629999876022
IDK1985w;experiment;2017-01-31-14-39-48;9,0;33,0;100;2,0;3,0;0,0;1,0;row;0,0;True;True;True;1,36699986458;True;0,531000137329
IDK1985w;experiment;2017-01-31-14-39-48;9,0;34,0;100;1,0;0,0;3,0;2,0;column;0,0;True;True;False;1,0;False;1,23000001907
IDK1985w;experiment;2017-01-31-14-39-48;9,0;35,0;100;3,0;2,0;1,0;0,0;row;1,0;False;False;True;1,16599988937;False;0,570999860764
IDK1985w;experiment;2017-01-31-14-39-48;9,0;36,0;100;3,0;1,0;2,0;0,0;row;0,0;True;False;True;0,934000015259;True;1,16100001335
IDK1985w;experiment;2017-01-31-14-39-48;9,0;37,0;100;0,0;2,0;1,0;3,0;column;0,0;True;False;False;1,26400017738;False;0,99799990654
IDK1985w;experiment;2017-01-31-14-39-48;9,0;38,0;100;2,0;1,0;0,0;3,0;column;0,0;True;True;False;1,00099992752;False;1,27099990845
IDK1985w;experiment;2017-01-31-14-39-48;9,0;39,0;100;2,0;0,0;1,0;3,0;row;0,0;True;True;True;0,933000087738;True;1,20800018311
IDK1985w;experiment;2017-01-31-14-39-48;9,0;40,0;100;1,0;3,0;2,0;0,0;row;1,0;False;True;False;0,966000080109;True;0,928999900818
IDK1985w;experiment;2017-01-31-14-39-48;9,0;41,0;100;1,0;0,0;2,0;3,0;column;1,0;True;False;False;1,06699991226;False;0,963999986649
IDK1985w;experiment;2017-01-31-14-39-48;9,0;42,0;100;0,0;2,0;3,0;1,0;row;0,0;False;False;False;1,26699995995;True;0,605000019073
IDK1985w;experiment;2017-01-31-14-39-48;9,0;43,0;100;1,0;0,0;2,0;3,0;row;0,0;False;True;False;1,86500000954;True;1,46099996567
IDK1985w;experiment;2017-01-31-14-39-48;9,0;44,0;100;0,0;1,0;3,0;2,0;row;0,0;True;False;True;0,966000080109;True;0,998000144958
IDK1985w;experiment;2017-01-31-14-39-48;9,0;45,0;100;1,0;2,0;0,0;3,0;column;1,0;False;False;False;1,5;True;1,50500011444
IDK1985w;experiment;2017-01-31-14-39-48;9,0;46,0;100;0,0;1,0;3,0;2,0;row;1,0;False;True;True;1,26600003242;False;1,4279999733
IDK1985w;experiment;2017-01-31-14-39-48;9,0;47,0;100;2,0;0,0;3,0;1,0;column;0,0;True;False;True;0,865999937057;True;1,26900005341
IDK1985w;experiment;2017-01-31-14-39-48;9,0;48,0;100;0,0;3,0;2,0;1,0;column;0,0;True;False;True;1,29999995232;True;0,695999860764
IDK1985w;experiment;2017-01-31-14-39-48;10,0;1,0;-100;0,0;2,0;3,0;1,0;column;0,0;True;True;False;1,28200006485;False;1,26800012589
IDK1985w;experiment;2017-01-31-14-39-48;10,0;2,0;-100;1,0;0,0;2,0;3,0;row;0,0;False;True;False;0,948999881744;True;0,796999931335
IDK1985w;experiment;2017-01-31-14-39-48;10,0;3,0;-100;1,0;0,0;2,0;3,0;column;0,0;False;False;False;1,68099999428;True;0,697000026703
IDK1985w;experiment;2017-01-31-14-39-48;10,0;4,0;-100;0,0;2,0;1,0;3,0;row;0,0;True;False;True;0,946000099182;True;1,46300005913
IDK1985w;experiment;2017-01-31-14-39-48;10,0;5,0;-100;1,0;0,0;2,0;3,0;column;1,0;True;True;True;1,51399993896;True;0,796999931335
IDK1985w;experiment;2017-01-31-14-39-48;10,0;6,0;-100;1,0;0,0;3,0;2,0;row;1,0;False;True;False;0,983000040054;True;1,36500000954
IDK1985w;experiment;2017-01-31-14-39-48;10,0;7,0;-100;3,0;2,0;1,0;0,0;column;0,0;False;True;False;1,38400006294;True;1,46900010109
IDK1985w;experiment;2017-01-31-14-39-48;10,0;8,0;-100;2,0;0,0;3,0;1,0;column;0,0;False;False;False;1,68200016022;True;1,36899995804
IDK1985w;experiment;2017-01-31-14-39-48;10,0;9,0;-100;3,0;1,0;0,0;2,0;column;1,0;True;False;True;1,04800009727;True;0,530999898911
IDK1985w;experiment;2017-01-31-14-39-48;10,0;10,0;-100;3,0;1,0;2,0;0,0;column;0,0;True;True;True;1,04999995232;True;1,29600000381
IDK1985w;experiment;2017-01-31-14-39-48;10,0;11,0;-100;1,0;0,0;2,0;3,0;row;0,0;True;True;True;1,21500015259;True;1,23699998856
IDK1985w;experiment;2017-01-31-14-39-48;10,0;12,0;-100;1,0;3,0;0,0;2,0;row;1,0;False;True;False;1,48500013351;True;1,13199996948
IDK1985w;experiment;2017-01-31-14-39-48;10,0;13,0;-100;1,0;3,0;0,0;2,0;row;0,0;False;True;False;1,28200006485;True;1,40400004387
IDK1985w;experiment;2017-01-31-14-39-48;10,0;14,0;-100;3,0;2,0;1,0;0,0;row;1,0;False;False;False;1,15000009537;True;0,894999980927
IDK1985w;experiment;2017-01-31-14-39-48;10,0;15,0;-100;1,0;3,0;2,0;0,0;column;1,0;False;False;False;1,14899992943;True;1,30400013924
IDK1985w;experiment;2017-01-31-14-39-48;10,0;16,0;-100;3,0;1,0;2,0;0,0;column;1,0;True;True;True;0,881999969482;True;1,00500011444
IDK1985w;experiment;2017-01-31-14-39-48;10,0;17,0;-100;2,0;3,0;1,0;0,0;row;1,0;True;False;False;1,4509999752;False;1,03099989891
IDK1985w;experiment;2017-01-31-14-39-48;10,0;18,0;-100;3,0;0,0;2,0;1,0;row;0,0;False;False;False;1,14100003242;True;0,828999996185
IDK1985w;experiment;2017-01-31-14-39-48;10,0;19,0;-100;3,0;0,0;2,0;1,0;column;1,0;True;False;True;0,983999967575;True;0,503000020981
IDK1985w;experiment;2017-01-31-14-39-48;10,0;20,0;-100;3,0;2,0;0,0;1,0;column;1,0;False;True;False;0,881999969482;True;0,805999994278
IDK1985w;experiment;2017-01-31-14-39-48;10,0;21,0;-100;3,0;2,0;1,0;0,0;row;0,0;False;True;True;1,61500000954;False;0,796000003815
IDK1985w;experiment;2017-01-31-14-39-48;10,0;22,0;-100;2,0;0,0;3,0;1,0;column;0,0;True;False;True;0,917000055313;True;1,43700003624
IDK1985w;experiment;2017-01-31-14-39-48;10,0;23,0;-100;2,0;0,0;3,0;1,0;row;0,0;False;False;False;1,51699995995;True;0,799999952316
IDK1985w;experiment;2017-01-31-14-39-48;10,0;24,0;-100;0,0;3,0;2,0;1,0;row;0,0;True;False;False;0,851000070572;False;1,22899985313
IDK1985w;experiment;2017-01-31-14-39-48;10,0;25,0;-100;0,0;1,0;3,0;2,0;column;0,0;True;False;True;1,18300008774;True;0,694999933243
IDK1985w;experiment;2017-01-31-14-39-48;10,0;26,0;-100;1,0;3,0;2,0;0,0;column;1,0;True;True;True;0,81500005722;True;0,537999868393
IDK1985w;experiment;2017-01-31-14-39-48;10,0;27,0;-100;2,0;1,0;0,0;3,0;row;1,0;True;False;False;0,983999967575;False;0,862999916077
IDK1985w;experiment;2017-01-31-14-39-48;10,0;28,0;-100;0,0;1,0;2,0;3,0;row;1,0;False;False;False;1,11599993706;True;1,2650001049
IDK1985w;experiment;2017-01-31-14-39-48;10,0;29,0;-100;2,0;3,0;1,0;0,0;column;0,0;False;True;True;0,883000135422;False;0,898000001907
IDK1985w;experiment;2017-01-31-14-39-48;10,0;30,0;-100;3,0;0,0;1,0;2,0;column;1,0;True;True;True;1,34999990463;True;0,531000137329
IDK1985w;experiment;2017-01-31-14-39-48;10,0;31,0;-100;3,0;1,0;0,0;2,0;column;0,0;True;False;True;1,15099978447;True;1,17199993134
IDK1985w;experiment;2017-01-31-14-39-48;10,0;32,0;-100;1,0;2,0;3,0;0,0;column;0,0;True;False;True;1,19099998474;True;0,597999811172
IDK1985w;experiment;2017-01-31-14-39-48;10,0;33,0;-100;1,0;2,0;0,0;3,0;column;1,0;False;False;False;1,11500000954;True;1,30099987984
IDK1985w;experiment;2017-01-31-14-39-48;10,0;34,0;-100;0,0;3,0;2,0;1,0;column;0,0;True;False;True;0,858999967575;True;1,00699996948
IDK1985w;experiment;2017-01-31-14-39-48;10,0;35,0;-100;0,0;1,0;3,0;2,0;row;0,0;True;True;False;0,947999954224;False;1,26599979401
IDK1985w;experiment;2017-01-31-14-39-48;10,0;36,0;-100;0,0;1,0;2,0;3,0;column;0,0;False;False;False;1,01499986649;True;0,962000131607
IDK1985w;experiment;2017-01-31-14-39-48;10,0;37,0;-100;1,0;3,0;0,0;2,0;row;0,0;True;True;True;1,31700015068;True;0,769000053406
IDK1985w;experiment;2017-01-31-14-39-48;10,0;38,0;-100;2,0;0,0;1,0;3,0;column;1,0;True;True;True;1,08300018311;True;0,731000185013
IDK1985w;experiment;2017-01-31-14-39-48;10,0;39,0;-100;0,0;2,0;1,0;3,0;row;1,0;True;False;False;1,31500005722;False;0,598000049591
IDK1985w;experiment;2017-01-31-14-39-48;10,0;40,0;-100;1,0;2,0;0,0;3,0;row;0,0;False;True;False;1,24699997902;True;0,662999868393
IDK1985w;experiment;2017-01-31-14-39-48;10,0;41,0;-100;2,0;3,0;0,0;1,0;row;1,0;False;True;True;1,25;False;1,32699990273
IDK1985w;experiment;2017-01-31-14-39-48;10,0;42,0;-100;1,0;2,0;3,0;0,0;row;0,0;True;True;False;1,21600008011;False;0,829999923706
IDK1985w;experiment;2017-01-31-14-39-48;10,0;43,0;-100;2,0;3,0;1,0;0,0;column;1,0;False;False;False;1,18400001526;True;1,16400003433
IDK1985w;experiment;2017-01-31-14-39-48;10,0;44,0;-100;0,0;3,0;1,0;2,0;row;0,0;True;False;False;1,94900012016;False;0,697000026703
IDK1985w;experiment;2017-01-31-14-39-48;10,0;45,0;-100;1,0;0,0;3,0;2,0;column;0,0;False;True;False;1,58399987221;True;1,2389998436
IDK1985w;experiment;2017-01-31-14-39-48;10,0;46,0;-100;0,0;3,0;2,0;1,0;row;0,0;False;True;True;0,816999912262;False;0,663000106812
IDK1985w;experiment;2017-01-31-14-39-48;10,0;47,0;-100;3,0;0,0;1,0;2,0;row;0,0;True;True;False;1,91400003433;False;1,32999992371
IDK1985w;experiment;2017-01-31-14-39-48;10,0;48,0;-100;3,0;0,0;2,0;1,0;row;1,0;False;False;False;1,05099987984;True;0,631000041962
IDK1985w;experiment;2017-01-31-14-39-48;11,0;1,0;100;3,0;0,0;1,0;2,0;column;0,0;False;True;False;0,967000007629;True;0,933000087738
IDK1985w;experiment;2017-01-31-14-39-48;11,0;2,0;100;0,0;2,0;1,0;3,0;column;0,0;False;False;False;0,799999952316;True;0,596999883652
IDK1985w;experiment;2017-01-31-14-39-48;11,0;3,0;100;2,0;1,0;3,0;0,0;column;1,0;False;True;True;0,767000198364;False;0,904000043869
IDK1985w;experiment;2017-01-31-14-39-48;11,0;4,0;100;1,0;3,0;2,0;0,0;column;1,0;False;True;False;0,967000007629;True;0,999000072479
IDK1985w;experiment;2017-01-31-14-39-48;11,0;5,0;100;0,0;3,0;2,0;1,0;row;0,0;False;False;True;1,19999980927;False;1,13700008392
IDK1985w;experiment;2017-01-31-14-39-48;11,0;6,0;100;3,0;0,0;2,0;1,0;column;0,0;True;False;False;0,733999967575;False;0,96599984169
IDK1985w;experiment;2017-01-31-14-39-48;11,0;7,0;100;2,0;3,0;1,0;0,0;row;1,0;False;True;False;0,733999967575;True;0,561000108719
IDK1985w;experiment;2017-01-31-14-39-48;11,0;8,0;100;3,0;2,0;0,0;1,0;row;0,0;False;True;False;0,898000001907;True;0,96599984169
IDK1985w;experiment;2017-01-31-14-39-48;11,0;9,0;100;2,0;1,0;0,0;3,0;column;1,0;True;False;False;1,03400015831;False;1,33800005913
IDK1985w;experiment;2017-01-31-14-39-48;11,0;10,0;100;0,0;2,0;1,0;3,0;row;0,0;False;True;False;1,39700007439;True;0,697000026703
IDK1985w;experiment;2017-01-31-14-39-48;11,0;11,0;100;2,0;3,0;1,0;0,0;row;1,0;True;True;False;1,13400006294;False;0,998999834061
IDK1985w;experiment;2017-01-31-14-39-48;11,0;12,0;100;0,0;2,0;3,0;1,0;column;1,0;False;False;False;1,19799995422;True;0,839999914169
IDK1985w;experiment;2017-01-31-14-39-48;11,0;13,0;100;2,0;3,0;1,0;0,0;row;0,0;True;True;True;0,867000102997;True;1,06700015068
IDK1985w;experiment;2017-01-31-14-39-48;11,0;14,0;100;2,0;0,0;3,0;1,0;row;1,0;False;False;False;0,999000072479;True;0,797000169754
IDK1985w;experiment;2017-01-31-14-39-48;11,0;15,0;100;3,0;0,0;1,0;2,0;column;1,0;False;False;False;0,900000095367;True;1,39800000191
IDK1985w;experiment;2017-01-31-14-39-48;11,0;16,0;100;1,0;2,0;3,0;0,0;row;1,0;True;False;False;0,700000047684;False;1,39800000191
IDK1985w;experiment;2017-01-31-14-39-48;11,0;17,0;100;1,0;0,0;3,0;2,0;row;0,0;False;True;False;1,0;True;0,697000026703
IDK1985w;experiment;2017-01-31-14-39-48;11,0;18,0;100;0,0;3,0;1,0;2,0;column;1,0;True;False;True;0,763999938965;True;1,36199998856
IDK1985w;experiment;2017-01-31-14-39-48;11,0;19,0;100;3,0;2,0;0,0;1,0;row;1,0;True;True;False;0,866999864578;False;1,46600008011
IDK1985w;experiment;2017-01-31-14-39-48;11,0;20,0;100;3,0;0,0;2,0;1,0;row;1,0;True;True;False;0,632000207901;False;0,831999778748
IDK1985w;experiment;2017-01-31-14-39-48;11,0;21,0;100;2,0;1,0;0,0;3,0;row;0,0;False;True;False;1,0;True;1,16799998283
IDK1985w;experiment;2017-01-31-14-39-48;11,0;22,0;100;1,0;3,0;0,0;2,0;row;1,0;True;True;True;0,931999921799;True;0,633000135422
IDK1985w;experiment;2017-01-31-14-39-48;11,0;23,0;100;2,0;0,0;3,0;1,0;column;1,0;False;True;False;0,967000007629;True;1,40700006485
IDK1985w;experiment;2017-01-31-14-39-48;11,0;24,0;100;0,0;1,0;2,0;3,0;column;1,0;True;True;False;0,765999794006;False;1,06200003624
IDK1985w;experiment;2017-01-31-14-39-48;11,0;25,0;100;2,0;3,0;1,0;0,0;column;1,0;False;True;True;1,0;False;1,03099989891
IDK1985w;experiment;2017-01-31-14-39-48;11,0;26,0;100;1,0;3,0;2,0;0,0;row;1,0;True;False;False;0,998999834061;False;1,06500005722
IDK1985w;experiment;2017-01-31-14-39-48;11,0;27,0;100;1,0;2,0;3,0;0,0;row;0,0;True;True;True;1,132999897;True;1,46499991417
IDK1985w;experiment;2017-01-31-14-39-48;11,0;28,0;100;1,0;0,0;3,0;2,0;column;1,0;False;False;False;1,23399996758;True;1,39599990845
IDK1985w;experiment;2017-01-31-14-39-48;11,0;29,0;100;3,0;1,0;0,0;2,0;column;0,0;True;True;True;1,52999997139;True;0,939999818802
IDK1985w;experiment;2017-01-31-14-39-48;11,0;30,0;100;3,0;1,0;2,0;0,0;column;1,0;True;False;False;0,700000047684;False;1,52699995041
IDK1985w;experiment;2017-01-31-14-39-48;11,0;31,0;100;2,0;3,0;0,0;1,0;row;0,0;False;True;True;0,965000152588;False;0,828999996185
IDK1985w;experiment;2017-01-31-14-39-48;11,0;32,0;100;1,0;3,0;2,0;0,0;column;0,0;True;False;True;1,7650001049;True;0,631000041962
IDK1985w;experiment;2017-01-31-14-39-48;11,0;33,0;100;0,0;1,0;2,0;3,0;column;1,0;False;True;False;1,33299994469;True;1,49799990654
IDK1985w;experiment;2017-01-31-14-39-48;11,0;34,0;100;3,0;0,0;1,0;2,0;row;1,0;False;False;False;0,899999856949;True;1,29700016975
IDK1985w;experiment;2017-01-31-14-39-48;11,0;35,0;100;1,0;0,0;3,0;2,0;row;1,0;False;True;False;1,16599988937;True;0,730999946594
IDK1985w;experiment;2017-01-31-14-39-48;11,0;36,0;100;3,0;1,0;0,0;2,0;column;0,0;False;True;True;1,19900012016;False;1,42999982834
IDK1985w;experiment;2017-01-31-14-39-48;11,0;37,0;100;3,0;0,0;2,0;1,0;column;0,0;False;True;False;0,667000055313;True;1,36500000954
IDK1985w;experiment;2017-01-31-14-39-48;11,0;38,0;100;3,0;1,0;2,0;0,0;column;0,0;True;True;False;0,766000032425;False;1,4960000515
IDK1985w;experiment;2017-01-31-14-39-48;11,0;39,0;100;3,0;1,0;2,0;0,0;column;0,0;False;False;False;1,16700005531;True;1,23799991608
IDK1985w;experiment;2017-01-31-14-39-48;11,0;40,0;100;1,0;3,0;0,0;2,0;column;1,0;True;True;True;1,26699995995;True;0,865000009537
IDK1985w;experiment;2017-01-31-14-39-48;11,0;41,0;100;0,0;3,0;2,0;1,0;column;1,0;True;True;True;1,06699991226;True;1,30400013924
IDK1985w;experiment;2017-01-31-14-39-48;11,0;42,0;100;2,0;1,0;3,0;0,0;row;1,0;False;True;False;0,832999944687;True;1,16299986839
IDK1985w;experiment;2017-01-31-14-39-48;11,0;43,0;100;0,0;1,0;2,0;3,0;column;0,0;True;False;False;0,799000024796;False;1,39700007439
IDK1985w;experiment;2017-01-31-14-39-48;11,0;44,0;100;2,0;0,0;1,0;3,0;column;1,0;True;True;True;1,53399991989;True;0,996000051498
IDK1985w;experiment;2017-01-31-14-39-48;11,0;45,0;100;3,0;2,0;0,0;1,0;column;1,0;False;False;False;1,03299999237;True;1,49699997902
IDK1985w;experiment;2017-01-31-14-39-48;11,0;46,0;100;3,0;2,0;1,0;0,0;column;0,0;False;True;False;0,867000102997;True;0,698000192642
IDK1985w;experiment;2017-01-31-14-39-48;11,0;47,0;100;1,0;0,0;2,0;3,0;row;1,0;True;True;False;0,932999849319;False;0,56299996376
IDK1985w;experiment;2017-01-31-14-39-48;11,0;48,0;100;0,0;2,0;1,0;3,0;row;1,0;False;False;False;0,733999967575;True;1,33299994469
IDK1985w;experiment;2017-01-31-14-39-48;12,0;1,0;1000;3,0;2,0;1,0;0,0;column;1,0;False;True;True;1,59999990463;False;1,36299991608
IDK1985w;experiment;2017-01-31-14-39-48;12,0;2,0;1000;1,0;2,0;3,0;0,0;column;0,0;False;True;False;1,30000019073;True;0,59500002861
IDK1985w;experiment;2017-01-31-14-39-48;12,0;3,0;1000;0,0;3,0;2,0;1,0;row;1,0;True;True;False;0,900000095367;False;1,19500017166
IDK1985w;experiment;2017-01-31-14-39-48;12,0;4,0;1000;1,0;2,0;3,0;0,0;column;1,0;True;False;True;1,70000004768;True;1,32600021362
IDK1985w;experiment;2017-01-31-14-39-48;12,0;5,0;1000;2,0;0,0;1,0;3,0;row;1,0;True;True;True;1,0;True;1,36199998856
IDK1985w;experiment;2017-01-31-14-39-48;12,0;6,0;1000;3,0;1,0;0,0;2,0;row;0,0;False;True;True;1,36800003052;False;0,930000066757
IDK1985w;experiment;2017-01-31-14-39-48;12,0;7,0;1000;3,0;1,0;2,0;0,0;row;1,0;False;True;False;0,699000120163;True;0,960000038147
IDK1985w;experiment;2017-01-31-14-39-48;12,0;8,0;1000;0,0;2,0;1,0;3,0;column;1,0;False;False;False;1,06700015068;True;1,16100001335
IDK1985w;experiment;2017-01-31-14-39-48;12,0;9,0;1000;3,0;1,0;2,0;0,0;column;1,0;False;False;False;1,132999897;True;1,0600001812
IDK1985w;experiment;2017-01-31-14-39-48;12,0;10,0;1000;2,0;3,0;0,0;1,0;row;1,0;True;False;False;0,797999858856;False;0,561000108719
IDK1985w;experiment;2017-01-31-14-39-48;12,0;11,0;1000;2,0;0,0;1,0;3,0;row;0,0;True;True;False;0,834000110626;False;1,16199994087
IDK1985w;experiment;2017-01-31-14-39-48;12,0;12,0;1000;3,0;0,0;1,0;2,0;column;0,0;True;True;False;0,865000009537;False;1,1289999485
IDK1985w;experiment;2017-01-31-14-39-48;12,0;13,0;1000;2,0;1,0;3,0;0,0;row;0,0;True;True;True;0,93399977684;True;0,94100022316
IDK1985w;experiment;2017-01-31-14-39-48;12,0;14,0;1000;0,0;1,0;2,0;3,0;row;1,0;True;True;False;0,998999834061;False;0,832000017166
IDK1985w;experiment;2017-01-31-14-39-48;12,0;15,0;1000;0,0;1,0;2,0;3,0;column;1,0;False;True;True;1,16599988937;False;1,23200011253
IDK1985w;experiment;2017-01-31-14-39-48;12,0;16,0;1000;1,0;3,0;0,0;2,0;row;1,0;False;False;False;1,0680000782;True;1,20399999619
IDK1985w;experiment;2017-01-31-14-39-48;12,0;17,0;1000;1,0;3,0;2,0;0,0;column;0,0;True;False;False;1,23399996758;False;1,32800006866
IDK1985w;experiment;2017-01-31-14-39-48;12,0;18,0;1000;3,0;1,0;0,0;2,0;row;1,0;False;False;False;0,799999952316;True;1,43099999428
IDK1985w;experiment;2017-01-31-14-39-48;12,0;19,0;1000;1,0;0,0;3,0;2,0;column;0,0;False;False;True;2,09999990463;False;1,0039999485
IDK1985w;experiment;2017-01-31-14-39-48;12,0;20,0;1000;0,0;2,0;3,0;1,0;column;1,0;False;False;False;0,999000072479;True;1,13800001144
IDK1985w;experiment;2017-01-31-14-39-48;12,0;21,0;1000;1,0;0,0;3,0;2,0;column;1,0;True;False;False;0,834000110626;False;1,26899981499
IDK1985w;experiment;2017-01-31-14-39-48;12,0;22,0;1000;1,0;2,0;3,0;0,0;row;0,0;False;True;True;0,900000095367;False;1,46200013161
IDK1985w;experiment;2017-01-31-14-39-48;12,0;23,0;1000;2,0;0,0;3,0;1,0;row;1,0;False;False;False;1,03299999237;True;1,40199995041
IDK1985w;experiment;2017-01-31-14-39-48;12,0;24,0;1000;1,0;3,0;0,0;2,0;column;0,0;True;True;False;1,43300008774;False;1,32899999619
IDK1985w;experiment;2017-01-31-14-39-48;12,0;25,0;1000;3,0;0,0;2,0;1,0;column;0,0;False;True;False;1,03099989891;True;1,09800004959
IDK1985w;experiment;2017-01-31-14-39-48;12,0;26,0;1000;3,0;2,0;0,0;1,0;row;0,0;True;True;False;1,83100008965;False;0,55999994278
IDK1985w;experiment;2017-01-31-14-39-48;12,0;27,0;1000;0,0;1,0;2,0;3,0;column;1,0;True;False;False;0,832999944687;False;1,22900009155
IDK1985w;experiment;2017-01-31-14-39-48;12,0;28,0;1000;0,0;3,0;2,0;1,0;column;1,0;True;False;False;1,0;False;1,40499997139
IDK1985w;experiment;2017-01-31-14-39-48;12,0;29,0;1000;1,0;0,0;2,0;3,0;column;0,0;False;False;True;1,10000014305;False;1,4960000515
IDK1985w;experiment;2017-01-31-14-39-48;12,0;30,0;1000;0,0;1,0;3,0;2,0;row;0,0;True;False;True;1,70000004768;True;0,701999902725
IDK1985w;experiment;2017-01-31-14-39-48;12,0;31,0;1000;1,0;2,0;0,0;3,0;column;0,0;True;False;False;1,33300018311;False;0,830999851227
IDK1985w;experiment;2017-01-31-14-39-48;12,0;32,0;1000;1,0;2,0;0,0;3,0;column;1,0;False;True;False;1,0;True;1,23799991608
IDK1985w;experiment;2017-01-31-14-39-48;12,0;33,0;1000;0,0;3,0;2,0;1,0;column;1,0;False;True;False;0,834000110626;True;0,796000003815
IDK1985w;experiment;2017-01-31-14-39-48;12,0;34,0;1000;3,0;0,0;2,0;1,0;row;1,0;False;False;False;1,03299999237;True;1,33399987221
IDK1985w;experiment;2017-01-31-14-39-48;12,0;35,0;1000;0,0;3,0;1,0;2,0;column;0,0;True;False;True;0,733000040054;True;1,40499997139
IDK1985w;experiment;2017-01-31-14-39-48;12,0;36,0;1000;0,0;3,0;1,0;2,0;column;0,0;False;False;False;1,26599979401;True;0,572000026703
IDK1985w;experiment;2017-01-31-14-39-48;12,0;37,0;1000;1,0;2,0;3,0;0,0;column;1,0;False;False;False;0,96599984169;True;0,796000003815
IDK1985w;experiment;2017-01-31-14-39-48;12,0;38,0;1000;0,0;1,0;2,0;3,0;row;0,0;True;False;False;1,06699991226;False;1,13800001144
IDK1985w;experiment;2017-01-31-14-39-48;12,0;39,0;1000;2,0;3,0;0,0;1,0;column;0,0;True;False;True;0,833000183105;True;0,601000070572
IDK1985w;experiment;2017-01-31-14-39-48;12,0;40,0;1000;3,0;0,0;1,0;2,0;row;0,0;False;True;False;0,90099978447;True;1,16199994087
IDK1985w;experiment;2017-01-31-14-39-48;12,0;41,0;1000;2,0;0,0;3,0;1,0;row;0,0;True;True;False;0,832999944687;False;1,06200003624
IDK1985w;experiment;2017-01-31-14-39-48;12,0;42,0;1000;2,0;0,0;1,0;3,0;column;1,0;True;True;False;0,967000007629;False;0,828999996185
IDK1985w;experiment;2017-01-31-14-39-48;12,0;43,0;1000;3,0;1,0;0,0;2,0;row;1,0;True;False;False;0,934000015259;False;1,46199989319
IDK1985w;experiment;2017-01-31-14-39-48;12,0;44,0;1000;3,0;1,0;2,0;0,0;column;0,0;True;False;False;0,866000175476;False;0,828999996185
IDK1985w;experiment;2017-01-31-14-39-48;12,0;45,0;1000;1,0;0,0;3,0;2,0;row;1,0;False;True;True;1,03099989891;False;0,799000024796
IDK1985w;experiment;2017-01-31-14-39-48;12,0;46,0;1000;1,0;2,0;0,0;3,0;column;1,0;True;True;False;0,799999952316;False;0,52999997139
IDK1985w;experiment;2017-01-31-14-39-48;12,0;47,0;1000;1,0;0,0;2,0;3,0;row;1,0;False;True;False;1,20000004768;True;0,805000066757
IDK1985w;experiment;2017-01-31-14-39-48;12,0;48,0;1000;1,0;3,0;0,0;2,0;row;1,0;True;False;False;1,03299999237;False;1,26900005341
