Observer;Condition;SessionID;Block;Trial;COA;Color0;Color1;Color2;Color3;Target;Which;Match;FlipComplimentary;Response;RT;Correct;OnsetDelay
IRN1996w;game;2017-04-28-15-36-43;1,0;1,0;-100;3,0;1,0;2,0;0,0;row;1,0;False;False;False;1,78399991989;True;0,705000162125
IRN1996w;game;2017-04-28-15-36-43;1,0;2,0;-100;3,0;1,0;0,0;2,0;column;0,0;False;False;False;1,58400011063;True;0,93499994278
IRN1996w;game;2017-04-28-15-36-43;1,0;3,0;-100;2,0;3,0;1,0;0,0;column;0,0;True;False;True;2,08299994469;True;0,800999879837
IRN1996w;game;2017-04-28-15-36-43;1,0;4,0;-100;1,0;2,0;3,0;0,0;row;1,0;True;False;False;1,31599998474;False;0,706000089645
IRN1996w;game;2017-04-28-15-36-43;1,0;5,0;-100;1,0;0,0;3,0;2,0;row;0,0;False;True;False;1,88300013542;True;1,36000013351
IRN1996w;game;2017-04-28-15-36-43;1,0;6,0;-100;2,0;1,0;3,0;0,0;column;0,0;False;True;False;1,31699991226;True;1,16899991035
IRN1996w;game;2017-04-28-15-36-43;1,0;7,0;-100;0,0;3,0;2,0;1,0;column;1,0;True;False;False;1,21600008011;False;1,30199980736
IRN1996w;game;2017-04-28-15-36-43;1,0;8,0;-100;2,0;3,0;0,0;1,0;column;1,0;False;False;False;1,41600012779;True;1,12600016594
IRN1996w;game;2017-04-28-15-36-43;1,0;9,0;-100;3,0;0,0;2,0;1,0;column;0,0;False;False;False;1,41700005531;True;0,730000019073
IRN1996w;game;2017-04-28-15-36-43;1,0;10,0;-100;0,0;2,0;1,0;3,0;column;0,0;False;False;False;1,95000004768;True;1,36199998856
IRN1996w;game;2017-04-28-15-36-43;1,0;11,0;-100;1,0;3,0;2,0;0,0;row;0,0;False;False;False;1,25;True;0,723999977112
IRN1996w;game;2017-04-28-15-36-43;1,0;12,0;-100;3,0;1,0;0,0;2,0;column;1,0;False;False;True;2,01600003242;False;1,35899996758
IRN1996w;game;2017-04-28-15-36-43;1,0;13,0;-100;0,0;1,0;2,0;3,0;row;0,0;True;True;True;2,01699995995;True;0,648999929428
IRN1996w;game;2017-04-28-15-36-43;1,0;14,0;-100;2,0;3,0;1,0;0,0;row;0,0;False;True;False;1,01599979401;True;0,927999973297
IRN1996w;game;2017-04-28-15-36-43;1,0;15,0;-100;3,0;0,0;2,0;1,0;column;1,0;True;False;True;1,34899997711;True;0,695000171661
IRN1996w;game;2017-04-28-15-36-43;1,0;16,0;-100;3,0;2,0;0,0;1,0;column;0,0;False;False;True;1,48399996758;False;1,18899989128
IRN1996w;game;2017-04-28-15-36-43;1,0;17,0;-100;3,0;0,0;1,0;2,0;row;1,0;False;True;False;1,28400015831;True;0,993999958038
IRN1996w;game;2017-04-28-15-36-43;1,0;18,0;-100;3,0;1,0;0,0;2,0;row;1,0;True;False;True;2,24899983406;True;1,36899995804
IRN1996w;game;2017-04-28-15-36-43;1,0;19,0;-100;3,0;0,0;2,0;1,0;row;1,0;False;True;False;0,917000055313;True;1,19599986076
IRN1996w;game;2017-04-28-15-36-43;1,0;20,0;-100;0,0;1,0;3,0;2,0;column;0,0;False;True;False;0,917000055313;True;1,03299999237
IRN1996w;game;2017-04-28-15-36-43;1,0;21,0;-100;0,0;1,0;3,0;2,0;row;1,0;True;False;True;1,48300004005;True;1,49100017548
IRN1996w;game;2017-04-28-15-36-43;1,0;22,0;-100;0,0;2,0;3,0;1,0;row;1,0;True;True;False;1,15000009537;False;0,556999921799
IRN1996w;game;2017-04-28-15-36-43;1,0;23,0;-100;2,0;0,0;1,0;3,0;row;1,0;False;False;True;1,78199982643;False;0,626999855042
IRN1996w;game;2017-04-28-15-36-43;1,0;24,0;-100;0,0;2,0;3,0;1,0;row;0,0;True;True;False;1,28200006485;False;1,19199991226
IRN1996w;game;2017-04-28-15-36-43;1,0;25,0;-100;1,0;0,0;3,0;2,0;column;0,0;True;False;False;1,55100011826;False;0,829999923706
IRN1996w;game;2017-04-28-15-36-43;1,0;26,0;-100;1,0;0,0;2,0;3,0;row;0,0;False;False;True;1,0490000248;False;0,973000049591
IRN1996w;game;2017-04-28-15-36-43;1,0;27,0;-100;2,0;3,0;1,0;0,0;column;1,0;True;False;False;1,35000014305;False;0,868000030518
IRN1996w;game;2017-04-28-15-36-43;1,0;28,0;-100;0,0;3,0;1,0;2,0;row;0,0;False;True;True;1,91499996185;False;1,28999996185
IRN1996w;game;2017-04-28-15-36-43;1,0;29,0;-100;2,0;0,0;3,0;1,0;column;1,0;False;False;False;2,15000009537;True;1,25999999046
IRN1996w;game;2017-04-28-15-36-43;1,0;30,0;-100;2,0;1,0;0,0;3,0;row;0,0;False;False;False;1,07999992371;True;1,22800016403
IRN1996w;game;2017-04-28-15-36-43;1,0;31,0;-100;2,0;3,0;0,0;1,0;column;0,0;False;True;True;2,05200004578;False;1,43200016022
IRN1996w;game;2017-04-28-15-36-43;1,0;32,0;-100;2,0;0,0;1,0;3,0;column;1,0;True;False;True;1,81699991226;True;0,859999895096
IRN1996w;game;2017-04-28-15-36-43;1,0;33,0;-100;1,0;3,0;0,0;2,0;row;0,0;True;True;True;2,08400011063;True;1,49499988556
IRN1996w;game;2017-04-28-15-36-43;1,0;34,0;-100;1,0;3,0;0,0;2,0;row;0,0;False;False;True;1,34999990463;False;0,704999923706
IRN1996w;game;2017-04-28-15-36-43;1,0;35,0;-100;3,0;2,0;1,0;0,0;column;0,0;True;True;True;1,5490000248;True;0,626999855042
IRN1996w;game;2017-04-28-15-36-43;1,0;36,0;-100;0,0;3,0;1,0;2,0;column;1,0;True;True;True;1,18299984932;True;0,838999986649
IRN1996w;game;2017-04-28-15-36-43;1,0;37,0;-100;0,0;1,0;2,0;3,0;column;1,0;True;True;True;1,61599993706;True;1,49899983406
IRN1996w;game;2017-04-28-15-36-43;1,0;38,0;-100;1,0;2,0;3,0;0,0;row;0,0;False;False;False;1,48300004005;True;0,624000072479
IRN1996w;game;2017-04-28-15-36-43;1,0;39,0;-100;0,0;2,0;3,0;1,0;column;0,0;True;False;True;1,04999995232;True;1,33399987221
IRN1996w;game;2017-04-28-15-36-43;1,0;40,0;-100;2,0;0,0;1,0;3,0;row;0,0;True;True;False;1,01699995995;False;1,0569999218
IRN1996w;game;2017-04-28-15-36-43;1,0;41,0;-100;2,0;3,0;0,0;1,0;column;1,0;True;True;True;1,51600003242;True;0,96799993515
IRN1996w;game;2017-04-28-15-36-43;1,0;42,0;-100;3,0;2,0;1,0;0,0;row;0,0;True;True;True;1,34800004959;True;0,50200009346
IRN1996w;game;2017-04-28-15-36-43;1,0;43,0;-100;2,0;1,0;0,0;3,0;row;0,0;True;False;False;1,01600003242;False;0,940999984741
IRN1996w;game;2017-04-28-15-36-43;1,0;44,0;-100;0,0;2,0;1,0;3,0;row;0,0;False;True;True;1,51799988747;False;0,927999973297
IRN1996w;game;2017-04-28-15-36-43;1,0;45,0;-100;3,0;2,0;1,0;0,0;column;1,0;False;True;False;1,28399991989;True;0,569000005722
IRN1996w;game;2017-04-28-15-36-43;1,0;46,0;-100;1,0;3,0;0,0;2,0;column;1,0;False;True;True;0,915999889374;False;1,33000016212
IRN1996w;game;2017-04-28-15-36-43;1,0;47,0;-100;3,0;0,0;2,0;1,0;column;1,0;False;True;True;0,850000143051;False;0,826999902725
IRN1996w;game;2017-04-28-15-36-43;1,0;48,0;-100;2,0;0,0;3,0;1,0;column;0,0;True;True;True;1,14999985695;True;1,4279999733
IRN1996w;game;2017-04-28-15-36-43;2,0;1,0;100;2,0;1,0;3,0;0,0;column;0,0;True;False;True;0,766999959946;True;1,23300004005
IRN1996w;game;2017-04-28-15-36-43;2,0;2,0;100;1,0;2,0;0,0;3,0;row;1,0;False;False;False;0,84500002861;True;0,961999893188
IRN1996w;game;2017-04-28-15-36-43;2,0;3,0;100;2,0;1,0;0,0;3,0;row;0,0;False;True;False;1,20000004768;True;1,06399989128
IRN1996w;game;2017-04-28-15-36-43;2,0;4,0;100;0,0;1,0;3,0;2,0;column;0,0;True;True;False;1,33300018311;False;1,46500015259
IRN1996w;game;2017-04-28-15-36-43;2,0;5,0;100;3,0;2,0;0,0;1,0;row;1,0;True;True;False;1,43400001526;False;0,825000047684
IRN1996w;game;2017-04-28-15-36-43;2,0;6,0;100;2,0;0,0;3,0;1,0;row;0,0;True;False;False;1,33299994469;False;1,02900004387
IRN1996w;game;2017-04-28-15-36-43;2,0;7,0;100;1,0;2,0;0,0;3,0;column;0,0;False;False;True;1,06599998474;False;0,535000085831
IRN1996w;game;2017-04-28-15-36-43;2,0;8,0;100;3,0;0,0;2,0;1,0;row;0,0;False;False;False;1,46599984169;True;1,39800000191
IRN1996w;game;2017-04-28-15-36-43;2,0;9,0;100;3,0;2,0;0,0;1,0;row;0,0;False;True;True;1,66700005531;False;0,52899980545
IRN1996w;game;2017-04-28-15-36-43;2,0;10,0;100;0,0;3,0;1,0;2,0;row;1,0;True;True;True;1,83299994469;True;0,804999828339
IRN1996w;game;2017-04-28-15-36-43;2,0;11,0;100;3,0;0,0;2,0;1,0;column;1,0;False;True;True;0,934000015259;False;1,36199998856
IRN1996w;game;2017-04-28-15-36-43;2,0;12,0;100;3,0;2,0;1,0;0,0;row;1,0;False;False;True;1,53399991989;False;1,43299984932
IRN1996w;game;2017-04-28-15-36-43;2,0;13,0;100;3,0;1,0;0,0;2,0;column;0,0;True;True;True;1,76599979401;True;0,666999816895
IRN1996w;game;2017-04-28-15-36-43;2,0;14,0;100;1,0;0,0;3,0;2,0;row;0,0;False;True;True;0,967000007629;False;1,03699994087
IRN1996w;game;2017-04-28-15-36-43;2,0;15,0;100;1,0;2,0;3,0;0,0;column;0,0;False;True;True;1,26600003242;False;1,49099993706
IRN1996w;game;2017-04-28-15-36-43;2,0;16,0;100;3,0;0,0;1,0;2,0;row;0,0;True;False;False;1,23399996758;False;0,858999967575
IRN1996w;game;2017-04-28-15-36-43;2,0;17,0;100;3,0;0,0;2,0;1,0;column;0,0;True;False;True;1,03399991989;True;0,996999979019
IRN1996w;game;2017-04-28-15-36-43;2,0;18,0;100;2,0;3,0;0,0;1,0;column;1,0;True;False;True;1,46700000763;True;0,570999860764
IRN1996w;game;2017-04-28-15-36-43;2,0;19,0;100;2,0;0,0;1,0;3,0;column;0,0;False;True;False;2,16599988937;True;1,36800003052
IRN1996w;game;2017-04-28-15-36-43;2,0;20,0;100;0,0;3,0;2,0;1,0;column;1,0;False;True;True;0,867000102997;False;1,49699997902
IRN1996w;game;2017-04-28-15-36-43;2,0;21,0;100;0,0;2,0;3,0;1,0;column;1,0;True;False;False;2,16799998283;False;1,22499990463
IRN1996w;game;2017-04-28-15-36-43;2,0;22,0;100;0,0;1,0;2,0;3,0;row;0,0;False;True;False;1,29999995232;True;1,46200013161
IRN1996w;game;2017-04-28-15-36-43;2,0;23,0;100;1,0;0,0;3,0;2,0;column;0,0;True;True;False;1,80000019073;False;1,39499998093
IRN1996w;game;2017-04-28-15-36-43;2,0;24,0;100;3,0;0,0;1,0;2,0;column;0,0;False;False;True;1,09999990463;False;1,22399997711
IRN1996w;game;2017-04-28-15-36-43;2,0;25,0;100;1,0;0,0;3,0;2,0;row;1,0;True;False;False;1,73300004005;False;0,96799993515
IRN1996w;game;2017-04-28-15-36-43;2,0;26,0;100;0,0;2,0;1,0;3,0;row;0,0;False;True;False;1,20000004768;True;0,768000125885
IRN1996w;game;2017-04-28-15-36-43;2,0;27,0;100;2,0;0,0;1,0;3,0;column;1,0;True;True;False;1,06700015068;False;0,868999958038
IRN1996w;game;2017-04-28-15-36-43;2,0;28,0;100;0,0;2,0;3,0;1,0;column;0,0;True;False;False;1,46600008011;False;1,50300002098
IRN1996w;game;2017-04-28-15-36-43;2,0;29,0;100;3,0;1,0;0,0;2,0;column;0,0;False;False;False;1,40000009537;True;0,768999814987
IRN1996w;game;2017-04-28-15-36-43;2,0;30,0;100;2,0;0,0;1,0;3,0;row;1,0;True;True;True;1,83299994469;True;1,33599996567
IRN1996w;game;2017-04-28-15-36-43;2,0;31,0;100;2,0;1,0;3,0;0,0;row;0,0;False;True;False;1,13300013542;True;0,694000005722
IRN1996w;game;2017-04-28-15-36-43;2,0;32,0;100;3,0;2,0;1,0;0,0;row;1,0;True;True;False;1,367000103;False;0,725999832153
IRN1996w;game;2017-04-28-15-36-43;2,0;33,0;100;1,0;2,0;0,0;3,0;row;0,0;True;True;False;1,93299984932;False;0,836999893188
IRN1996w;game;2017-04-28-15-36-43;2,0;34,0;100;0,0;2,0;1,0;3,0;column;0,0;True;True;True;1,86699986458;True;0,735000133514
IRN1996w;game;2017-04-28-15-36-43;2,0;35,0;100;2,0;1,0;0,0;3,0;row;0,0;True;True;False;1,03299999237;False;1,19600009918
IRN1996w;game;2017-04-28-15-36-43;2,0;36,0;100;2,0;3,0;0,0;1,0;row;1,0;True;False;False;1,43299984932;False;1,40300011635
IRN1996w;game;2017-04-28-15-36-43;2,0;37,0;100;2,0;1,0;3,0;0,0;column;0,0;False;False;False;1,40000009537;True;1,17300009727
IRN1996w;game;2017-04-28-15-36-43;2,0;38,0;100;1,0;2,0;0,0;3,0;row;0,0;False;True;False;1,93099999428;True;1,02799987793
IRN1996w;game;2017-04-28-15-36-43;2,0;39,0;100;2,0;1,0;0,0;3,0;column;1,0;True;False;False;1,36699986458;False;0,535000085831
IRN1996w;game;2017-04-28-15-36-43;2,0;40,0;100;2,0;3,0;0,0;1,0;column;0,0;False;False;False;2,06699991226;True;0,835999965668
IRN1996w;game;2017-04-28-15-36-43;2,0;41,0;100;3,0;2,0;0,0;1,0;column;1,0;False;True;False;0,799999952316;True;1,15799999237
IRN1996w;game;2017-04-28-15-36-43;2,0;42,0;100;0,0;3,0;1,0;2,0;column;0,0;True;False;True;1,10000014305;True;0,901000022888
IRN1996w;game;2017-04-28-15-36-43;2,0;43,0;100;3,0;2,0;1,0;0,0;column;1,0;True;True;False;1,40000009537;False;0,93399977684
IRN1996w;game;2017-04-28-15-36-43;2,0;44,0;100;3,0;2,0;0,0;1,0;column;0,0;True;False;False;1,33500003815;False;1,42700004578
IRN1996w;game;2017-04-28-15-36-43;2,0;45,0;100;0,0;1,0;2,0;3,0;column;1,0;True;False;False;1,13199996948;False;1,40199995041
IRN1996w;game;2017-04-28-15-36-43;2,0;46,0;100;0,0;3,0;1,0;2,0;row;0,0;True;False;True;1,53200006485;True;0,868000030518
IRN1996w;game;2017-04-28-15-36-43;2,0;47,0;100;0,0;3,0;2,0;1,0;column;1,0;True;False;True;1,56699991226;True;1,39499998093
IRN1996w;game;2017-04-28-15-36-43;2,0;48,0;100;2,0;1,0;0,0;3,0;row;1,0;True;True;True;1,76699995995;True;1,0640001297
IRN1996w;game;2017-04-28-15-36-43;3,0;1,0;1000;3,0;2,0;1,0;0,0;column;0,0;False;False;False;1,53299999237;True;0,605000019073
IRN1996w;game;2017-04-28-15-36-43;3,0;2,0;1000;2,0;1,0;3,0;0,0;column;1,0;True;False;True;1,59899997711;True;1,23799991608
IRN1996w;game;2017-04-28-15-36-43;3,0;3,0;1000;1,0;2,0;0,0;3,0;row;1,0;True;False;False;1,73099994659;False;0,857999801636
IRN1996w;game;2017-04-28-15-36-43;3,0;4,0;1000;2,0;3,0;0,0;1,0;column;1,0;False;False;False;1,70000004768;True;1,15999984741
IRN1996w;game;2017-04-28-15-36-43;3,0;5,0;1000;2,0;0,0;1,0;3,0;column;0,0;True;False;True;1,5;True;1,00200009346
IRN1996w;game;2017-04-28-15-36-43;3,0;6,0;1000;1,0;3,0;0,0;2,0;column;1,0;True;False;False;2,13199996948;False;1,1970000267
IRN1996w;game;2017-04-28-15-36-43;3,0;7,0;1000;1,0;3,0;0,0;2,0;column;0,0;True;True;False;1,83200001717;False;0,52999997139
IRN1996w;game;2017-04-28-15-36-43;3,0;8,0;1000;2,0;1,0;3,0;0,0;row;0,0;True;False;False;2,83400011063;False;1,12800002098
IRN1996w;game;2017-04-28-15-36-43;3,0;9,0;1000;0,0;1,0;2,0;3,0;row;0,0;True;False;False;1,2009999752;False;1,39999985695
IRN1996w;game;2017-04-28-15-36-43;3,0;10,0;1000;0,0;1,0;3,0;2,0;column;1,0;True;True;True;0,934000015259;True;0,569000005722
IRN1996w;game;2017-04-28-15-36-43;3,0;11,0;1000;1,0;3,0;2,0;0,0;column;0,0;True;True;True;2,39899992943;True;0,701999902725
IRN1996w;game;2017-04-28-15-36-43;3,0;12,0;1000;3,0;2,0;0,0;1,0;row;1,0;True;False;True;1,76699995995;True;0,805000066757
IRN1996w;game;2017-04-28-15-36-43;3,0;13,0;1000;1,0;2,0;3,0;0,0;row;0,0;True;True;True;0,667000055313;True;1,19799995422
IRN1996w;game;2017-04-28-15-36-43;3,0;14,0;1000;2,0;3,0;1,0;0,0;row;1,0;True;True;True;1,59999990463;True;1,16000008583
IRN1996w;game;2017-04-28-15-36-43;3,0;15,0;1000;1,0;3,0;0,0;2,0;column;0,0;False;False;False;1,19999980927;True;1,39100003242
IRN1996w;game;2017-04-28-15-36-43;3,0;16,0;1000;3,0;2,0;0,0;1,0;column;0,0;False;True;True;1,0;False;1,16400003433
IRN1996w;game;2017-04-28-15-36-43;3,0;17,0;1000;3,0;2,0;1,0;0,0;row;0,0;False;True;True;1,76699995995;False;0,563999891281
IRN1996w;game;2017-04-28-15-36-43;3,0;18,0;1000;1,0;3,0;0,0;2,0;row;0,0;True;True;False;1,23299980164;False;1,4960000515
IRN1996w;game;2017-04-28-15-36-43;3,0;19,0;1000;0,0;2,0;3,0;1,0;row;0,0;False;False;True;1,09800004959;False;1,4240000248
IRN1996w;game;2017-04-28-15-36-43;3,0;20,0;1000;0,0;3,0;1,0;2,0;column;1,0;True;False;True;1,43099999428;True;1,06500005722
IRN1996w;game;2017-04-28-15-36-43;3,0;21,0;1000;3,0;1,0;2,0;0,0;row;0,0;False;False;True;2,632999897;False;0,928999900818
IRN1996w;game;2017-04-28-15-36-43;3,0;22,0;1000;2,0;3,0;0,0;1,0;column;1,0;True;True;True;1,19999980927;True;0,930999994278
IRN1996w;game;2017-04-28-15-36-43;3,0;23,0;1000;2,0;3,0;0,0;1,0;row;0,0;True;True;True;1,03299999237;True;0,925999879837
IRN1996w;game;2017-04-28-15-36-43;3,0;24,0;1000;2,0;1,0;3,0;0,0;column;0,0;True;True;True;1,132999897;True;0,861000061035
IRN1996w;game;2017-04-28-15-36-43;3,0;25,0;1000;3,0;0,0;1,0;2,0;row;1,0;True;False;False;0,933000087738;False;0,930999994278
IRN1996w;game;2017-04-28-15-36-43;3,0;26,0;1000;0,0;1,0;2,0;3,0;row;1,0;True;False;False;1,03299999237;False;0,697999954224
IRN1996w;game;2017-04-28-15-36-43;3,0;27,0;1000;2,0;0,0;1,0;3,0;row;1,0;False;True;False;1,10000014305;True;0,792999982834
IRN1996w;game;2017-04-28-15-36-43;3,0;28,0;1000;2,0;3,0;1,0;0,0;column;0,0;False;True;True;1,0;False;0,535000085831
IRN1996w;game;2017-04-28-15-36-43;3,0;29,0;1000;2,0;0,0;1,0;3,0;column;0,0;False;True;False;1,09999990463;True;1,03400015831
IRN1996w;game;2017-04-28-15-36-43;3,0;30,0;1000;2,0;0,0;1,0;3,0;row;0,0;True;False;True;1,0;True;0,662999868393
IRN1996w;game;2017-04-28-15-36-43;3,0;31,0;1000;0,0;1,0;2,0;3,0;row;1,0;False;False;False;1,19999980927;True;1,10100007057
IRN1996w;game;2017-04-28-15-36-43;3,0;32,0;1000;0,0;2,0;1,0;3,0;column;0,0;True;True;True;2,36599993706;True;0,730999946594
IRN1996w;game;2017-04-28-15-36-43;3,0;33,0;1000;2,0;1,0;0,0;3,0;column;1,0;False;False;False;1,5;True;1,40100002289
IRN1996w;game;2017-04-28-15-36-43;3,0;34,0;1000;2,0;3,0;0,0;1,0;row;0,0;False;True;False;1,16599988937;True;1,39899992943
IRN1996w;game;2017-04-28-15-36-43;3,0;35,0;1000;1,0;0,0;2,0;3,0;column;1,0;True;True;False;1,13300013542;False;1,26099991798
IRN1996w;game;2017-04-28-15-36-43;3,0;36,0;1000;3,0;1,0;2,0;0,0;row;0,0;True;True;True;1,16600012779;True;1,39400005341
IRN1996w;game;2017-04-28-15-36-43;3,0;37,0;1000;0,0;2,0;3,0;1,0;row;0,0;True;False;True;0,899999856949;True;1,36800003052
IRN1996w;game;2017-04-28-15-36-43;3,0;38,0;1000;2,0;0,0;3,0;1,0;row;1,0;True;False;False;1,23299980164;False;0,871999979019
IRN1996w;game;2017-04-28-15-36-43;3,0;39,0;1000;3,0;1,0;0,0;2,0;column;1,0;True;False;False;0,967000007629;False;0,933000087738
IRN1996w;game;2017-04-28-15-36-43;3,0;40,0;1000;2,0;3,0;1,0;0,0;row;1,0;False;False;True;1,06700015068;False;1,20199990273
IRN1996w;game;2017-04-28-15-36-43;3,0;41,0;1000;1,0;3,0;2,0;0,0;row;1,0;True;False;True;0,934000015259;True;0,668999910355
IRN1996w;game;2017-04-28-15-36-43;3,0;42,0;1000;2,0;3,0;0,0;1,0;column;0,0;True;True;False;1,36600017548;False;1,26300001144
IRN1996w;game;2017-04-28-15-36-43;3,0;43,0;1000;3,0;0,0;2,0;1,0;row;0,0;False;False;False;1,03299999237;True;1,39899992943
IRN1996w;game;2017-04-28-15-36-43;3,0;44,0;1000;2,0;1,0;3,0;0,0;row;0,0;False;False;False;0,966000080109;True;1,1289999485
IRN1996w;game;2017-04-28-15-36-43;3,0;45,0;1000;2,0;0,0;1,0;3,0;row;0,0;False;True;False;1,10000014305;True;0,901999950409
IRN1996w;game;2017-04-28-15-36-43;3,0;46,0;1000;3,0;0,0;2,0;1,0;column;1,0;False;False;False;1,00599980354;True;1,22599983215
IRN1996w;game;2017-04-28-15-36-43;3,0;47,0;1000;0,0;2,0;3,0;1,0;column;1,0;True;True;True;1,80100011826;True;0,592000007629
IRN1996w;game;2017-04-28-15-36-43;3,0;48,0;1000;3,0;2,0;0,0;1,0;column;0,0;True;False;False;1,5;False;1,39699983597
IRN1996w;game;2017-04-28-15-36-43;4,0;1,0;100;2,0;0,0;3,0;1,0;column;0,0;False;True;False;1,30000019073;True;1,15299987793
IRN1996w;game;2017-04-28-15-36-43;4,0;2,0;100;3,0;1,0;0,0;2,0;column;1,0;False;False;True;1,43300008774;False;1,06500005722
IRN1996w;game;2017-04-28-15-36-43;4,0;3,0;100;1,0;0,0;3,0;2,0;column;1,0;False;True;True;1,50099992752;False;1,29200005531
IRN1996w;game;2017-04-28-15-36-43;4,0;4,0;100;1,0;3,0;0,0;2,0;column;1,0;True;False;True;1,66700005531;True;0,55999994278
IRN1996w;game;2017-04-28-15-36-43;4,0;5,0;100;2,0;1,0;0,0;3,0;column;0,0;False;False;False;0,900000095367;True;0,56200003624
IRN1996w;game;2017-04-28-15-36-43;4,0;6,0;100;0,0;3,0;2,0;1,0;column;0,0;True;True;True;1,76600003242;True;1,02800011635
IRN1996w;game;2017-04-28-15-36-43;4,0;7,0;100;0,0;1,0;2,0;3,0;row;1,0;False;False;True;1,69999980927;False;0,56500005722
IRN1996w;game;2017-04-28-15-36-43;4,0;8,0;100;3,0;1,0;2,0;0,0;row;0,0;True;False;True;1,23199987411;True;1,12700009346
IRN1996w;game;2017-04-28-15-36-43;4,0;9,0;100;2,0;3,0;0,0;1,0;row;1,0;False;True;True;1,20000004768;False;0,630000114441
IRN1996w;game;2017-04-28-15-36-43;4,0;10,0;100;1,0;0,0;3,0;2,0;row;0,0;True;True;True;1,90000009537;True;0,730000019073
IRN1996w;game;2017-04-28-15-36-43;4,0;11,0;100;3,0;2,0;0,0;1,0;column;1,0;True;True;False;1,43400001526;False;0,996999979019
IRN1996w;game;2017-04-28-15-36-43;4,0;12,0;100;2,0;0,0;1,0;3,0;column;1,0;False;True;False;1,66499996185;True;1,33600020409
IRN1996w;game;2017-04-28-15-36-43;4,0;13,0;100;0,0;1,0;2,0;3,0;row;0,0;True;False;True;0,832999944687;True;0,963999986649
IRN1996w;game;2017-04-28-15-36-43;4,0;14,0;100;2,0;3,0;1,0;0,0;column;1,0;True;False;False;1,60099983215;False;0,56600022316
IRN1996w;game;2017-04-28-15-36-43;4,0;15,0;100;3,0;1,0;2,0;0,0;row;1,0;False;True;True;1,132999897;False;0,837000131607
IRN1996w;game;2017-04-28-15-36-43;4,0;16,0;100;3,0;1,0;2,0;0,0;column;1,0;True;False;False;1,46499991417;False;0,828999996185
IRN1996w;game;2017-04-28-15-36-43;4,0;17,0;100;0,0;1,0;3,0;2,0;row;1,0;True;True;False;1,70000004768;False;1,43700003624
IRN1996w;game;2017-04-28-15-36-43;4,0;18,0;100;0,0;3,0;2,0;1,0;row;0,0;False;False;True;1,00100016594;False;0,766000032425
IRN1996w;game;2017-04-28-15-36-43;4,0;19,0;100;3,0;1,0;0,0;2,0;row;1,0;True;True;True;1,30099987984;True;0,967000007629
IRN1996w;game;2017-04-28-15-36-43;4,0;20,0;100;3,0;2,0;0,0;1,0;row;1,0;False;False;False;2,09999990463;True;0,733999967575
IRN1996w;game;2017-04-28-15-36-43;4,0;21,0;100;2,0;3,0;1,0;0,0;row;0,0;False;False;False;1,83299994469;True;0,931999921799
IRN1996w;game;2017-04-28-15-36-43;4,0;22,0;100;3,0;0,0;1,0;2,0;row;0,0;False;True;True;2,33800005913;False;1,49799990654
IRN1996w;game;2017-04-28-15-36-43;4,0;23,0;100;0,0;2,0;3,0;1,0;column;0,0;False;False;False;1,73300004005;True;0,699999809265
IRN1996w;game;2017-04-28-15-36-43;4,0;24,0;100;0,0;3,0;1,0;2,0;column;0,0;False;True;False;2,59999990463;True;0,901000022888
IRN1996w;game;2017-04-28-15-36-43;4,0;25,0;100;2,0;0,0;3,0;1,0;row;0,0;False;False;True;1,90000009537;False;0,871999979019
IRN1996w;game;2017-04-28-15-36-43;4,0;26,0;100;0,0;1,0;3,0;2,0;row;0,0;True;True;True;1,16499996185;True;0,970999956131
IRN1996w;game;2017-04-28-15-36-43;4,0;27,0;100;1,0;0,0;2,0;3,0;column;0,0;False;False;False;1,69799995422;True;1,2619998455
IRN1996w;game;2017-04-28-15-36-43;4,0;28,0;100;3,0;1,0;2,0;0,0;column;0,0;True;True;False;1,80199980736;False;1,40600013733
IRN1996w;game;2017-04-28-15-36-43;4,0;29,0;100;1,0;3,0;2,0;0,0;column;1,0;False;False;False;1,20000004768;True;1,16799998283
IRN1996w;game;2017-04-28-15-36-43;4,0;30,0;100;0,0;1,0;2,0;3,0;column;0,0;False;True;False;1,43300008774;True;1,23600006104
IRN1996w;game;2017-04-28-15-36-43;4,0;31,0;100;0,0;2,0;1,0;3,0;column;1,0;False;True;False;1,43400001526;True;1,16900014877
IRN1996w;game;2017-04-28-15-36-43;4,0;32,0;100;0,0;1,0;3,0;2,0;column;0,0;False;False;False;1,10000014305;True;1,09899997711
IRN1996w;game;2017-04-28-15-36-43;4,0;33,0;100;3,0;0,0;1,0;2,0;column;0,0;True;True;True;0,967000007629;True;0,705999851227
IRN1996w;game;2017-04-28-15-36-43;4,0;34,0;100;2,0;1,0;3,0;0,0;column;1,0;True;False;False;1,46600008011;False;1,32699990273
IRN1996w;game;2017-04-28-15-36-43;4,0;35,0;100;1,0;3,0;2,0;0,0;column;0,0;False;True;True;1,60899996758;False;1,40300011635
IRN1996w;game;2017-04-28-15-36-43;4,0;36,0;100;3,0;2,0;1,0;0,0;row;0,0;False;True;False;2,40000009537;True;1,13099980354
IRN1996w;game;2017-04-28-15-36-43;4,0;37,0;100;2,0;0,0;3,0;1,0;column;1,0;False;True;False;1,40000009537;True;1,46700000763
IRN1996w;game;2017-04-28-15-36-43;4,0;38,0;100;0,0;2,0;3,0;1,0;row;1,0;False;False;False;1,16699981689;True;0,832000017166
IRN1996w;game;2017-04-28-15-36-43;4,0;39,0;100;1,0;3,0;0,0;2,0;row;1,0;True;True;False;1,19899988174;False;1,00300002098
IRN1996w;game;2017-04-28-15-36-43;4,0;40,0;100;1,0;3,0;2,0;0,0;row;0,0;False;False;False;2,16699981689;True;0,803999900818
IRN1996w;game;2017-04-28-15-36-43;4,0;41,0;100;3,0;2,0;1,0;0,0;column;1,0;False;True;False;1,20000004768;True;0,792999982834
IRN1996w;game;2017-04-28-15-36-43;4,0;42,0;100;1,0;2,0;0,0;3,0;row;1,0;True;True;True;1,5;True;0,898999929428
IRN1996w;game;2017-04-28-15-36-43;4,0;43,0;100;1,0;3,0;2,0;0,0;row;1,0;True;True;False;1,90000009537;False;0,529000043869
IRN1996w;game;2017-04-28-15-36-43;4,0;44,0;100;0,0;1,0;3,0;2,0;row;0,0;False;False;False;1,26699995995;True;1,50200009346
IRN1996w;game;2017-04-28-15-36-43;4,0;45,0;100;3,0;1,0;2,0;0,0;column;0,0;False;False;False;1,132999897;True;1,29699993134
IRN1996w;game;2017-04-28-15-36-43;4,0;46,0;100;3,0;2,0;1,0;0,0;column;0,0;False;True;False;2,03099989891;True;1,26400017738
IRN1996w;game;2017-04-28-15-36-43;4,0;47,0;100;0,0;1,0;3,0;2,0;column;1,0;True;False;False;1,43299984932;False;0,959000110626
IRN1996w;game;2017-04-28-15-36-43;4,0;48,0;100;1,0;2,0;3,0;0,0;row;1,0;True;False;False;1,66499996185;False;0,728000164032
IRN1996w;game;2017-04-28-15-36-43;5,0;1,0;1000;1,0;3,0;2,0;0,0;row;0,0;False;False;True;0,832999944687;False;1,22600007057
IRN1996w;game;2017-04-28-15-36-43;5,0;2,0;1000;3,0;0,0;2,0;1,0;column;1,0;True;False;True;1,36699986458;True;0,528000116348
IRN1996w;game;2017-04-28-15-36-43;5,0;3,0;1000;1,0;2,0;3,0;0,0;row;1,0;True;True;True;1,16700005531;True;0,62700009346
IRN1996w;game;2017-04-28-15-36-43;5,0;4,0;1000;1,0;2,0;3,0;0,0;column;1,0;False;True;False;0,966000080109;True;1,16100001335
IRN1996w;game;2017-04-28-15-36-43;5,0;5,0;1000;3,0;2,0;0,0;1,0;row;1,0;False;True;False;1,16700005531;True;0,529000043869
IRN1996w;game;2017-04-28-15-36-43;5,0;6,0;1000;1,0;0,0;2,0;3,0;row;0,0;True;True;True;2,33300018311;True;1,20200014114
IRN1996w;game;2017-04-28-15-36-43;5,0;7,0;1000;1,0;2,0;0,0;3,0;row;0,0;False;False;False;1,73300004005;True;0,93700003624
IRN1996w;game;2017-04-28-15-36-43;5,0;8,0;1000;1,0;2,0;3,0;0,0;row;0,0;False;False;True;1,83299994469;False;0,837000131607
IRN1996w;game;2017-04-28-15-36-43;5,0;9,0;1000;1,0;3,0;0,0;2,0;row;1,0;False;False;True;1,10100007057;False;1,32100009918
IRN1996w;game;2017-04-28-15-36-43;5,0;10,0;1000;0,0;3,0;1,0;2,0;row;1,0;True;True;True;2,33300018311;True;1,22699999809
IRN1996w;game;2017-04-28-15-36-43;5,0;11,0;1000;0,0;2,0;1,0;3,0;row;0,0;True;True;True;1,69899988174;True;1,22899985313
IRN1996w;game;2017-04-28-15-36-43;5,0;12,0;1000;3,0;1,0;2,0;0,0;column;0,0;False;True;False;1,16700005531;True;1,04000020027
IRN1996w;game;2017-04-28-15-36-43;5,0;13,0;1000;1,0;2,0;0,0;3,0;column;1,0;False;False;False;1,59899997711;True;0,793999910355
IRN1996w;game;2017-04-28-15-36-43;5,0;14,0;1000;0,0;1,0;2,0;3,0;row;0,0;False;False;True;2,0680000782;False;1,3259999752
IRN1996w;game;2017-04-28-15-36-43;5,0;15,0;1000;1,0;2,0;0,0;3,0;column;1,0;True;False;True;1,20000004768;True;1,22600007057
IRN1996w;game;2017-04-28-15-36-43;5,0;16,0;1000;1,0;0,0;3,0;2,0;row;0,0;True;False;True;1,46700000763;True;1,49799990654
IRN1996w;game;2017-04-28-15-36-43;5,0;17,0;1000;3,0;0,0;2,0;1,0;column;0,0;False;True;False;1,70000004768;True;1,4390001297
IRN1996w;game;2017-04-28-15-36-43;5,0;18,0;1000;2,0;1,0;0,0;3,0;row;0,0;False;True;False;1,79999995232;True;0,865000009537
IRN1996w;game;2017-04-28-15-36-43;5,0;19,0;1000;1,0;2,0;3,0;0,0;column;0,0;False;False;False;2,16599988937;True;0,623000144958
IRN1996w;game;2017-04-28-15-36-43;5,0;20,0;1000;1,0;3,0;0,0;2,0;column;1,0;False;False;False;1,26600003242;True;0,532999992371
IRN1996w;game;2017-04-28-15-36-43;5,0;21,0;1000;2,0;1,0;3,0;0,0;row;1,0;True;False;False;1,96399998665;False;0,838999986649
IRN1996w;game;2017-04-28-15-36-43;5,0;22,0;1000;0,0;3,0;2,0;1,0;column;1,0;False;True;False;1,90000009537;True;0,860000133514
IRN1996w;game;2017-04-28-15-36-43;5,0;23,0;1000;0,0;2,0;1,0;3,0;row;0,0;False;True;False;1,03299999237;True;1,26200008392
IRN1996w;game;2017-04-28-15-36-43;5,0;24,0;1000;3,0;2,0;0,0;1,0;column;1,0;True;False;True;2,7990000248;True;1,42699980736
IRN1996w;game;2017-04-28-15-36-43;5,0;25,0;1000;1,0;2,0;0,0;3,0;row;1,0;False;True;False;0,999000072479;True;0,838000059128
IRN1996w;game;2017-04-28-15-36-43;5,0;26,0;1000;2,0;1,0;3,0;0,0;row;1,0;False;True;False;1,10000014305;True;0,573999881744
IRN1996w;game;2017-04-28-15-36-43;5,0;27,0;1000;3,0;1,0;0,0;2,0;row;1,0;False;True;True;2,56699991226;False;0,768999814987
IRN1996w;game;2017-04-28-15-36-43;5,0;28,0;1000;0,0;2,0;3,0;1,0;row;1,0;False;True;False;1,13400006294;True;1,25699996948
IRN1996w;game;2017-04-28-15-36-43;5,0;29,0;1000;2,0;1,0;0,0;3,0;row;1,0;True;False;False;1,16699981689;False;0,97100019455
IRN1996w;game;2017-04-28-15-36-43;5,0;30,0;1000;1,0;0,0;3,0;2,0;column;0,0;True;True;True;1,13300013542;True;0,526999950409
IRN1996w;game;2017-04-28-15-36-43;5,0;31,0;1000;0,0;2,0;1,0;3,0;column;0,0;False;False;True;1,80000019073;False;0,898000001907
IRN1996w;game;2017-04-28-15-36-43;5,0;32,0;1000;0,0;1,0;2,0;3,0;column;0,0;False;False;False;0,933000087738;True;0,927000045776
IRN1996w;game;2017-04-28-15-36-43;5,0;33,0;1000;2,0;0,0;3,0;1,0;row;0,0;False;False;True;1,66599988937;False;1,42899990082
IRN1996w;game;2017-04-28-15-36-43;5,0;34,0;1000;0,0;1,0;3,0;2,0;column;1,0;False;False;False;1,5;True;0,636000156403
IRN1996w;game;2017-04-28-15-36-43;5,0;35,0;1000;2,0;1,0;0,0;3,0;column;0,0;True;False;False;1,30000019073;False;1,36100006104
IRN1996w;game;2017-04-28-15-36-43;5,0;36,0;1000;1,0;0,0;2,0;3,0;column;1,0;False;False;True;0,866999864578;False;1,46000003815
IRN1996w;game;2017-04-28-15-36-43;5,0;37,0;1000;3,0;2,0;1,0;0,0;row;0,0;True;True;True;0,733000040054;True;1,45899987221
IRN1996w;game;2017-04-28-15-36-43;5,0;38,0;1000;2,0;0,0;3,0;1,0;row;0,0;True;False;True;0,833999872208;True;0,932000160217
IRN1996w;game;2017-04-28-15-36-43;5,0;39,0;1000;0,0;1,0;3,0;2,0;row;0,0;True;True;True;0,834000110626;True;1,13499999046
IRN1996w;game;2017-04-28-15-36-43;5,0;40,0;1000;0,0;1,0;2,0;3,0;column;1,0;False;False;True;0,967000007629;False;1,23199987411
IRN1996w;game;2017-04-28-15-36-43;5,0;41,0;1000;1,0;3,0;2,0;0,0;row;0,0;True;True;True;0,766999959946;True;1,49399995804
IRN1996w;game;2017-04-28-15-36-43;5,0;42,0;1000;0,0;3,0;2,0;1,0;row;1,0;True;False;False;1,16700005531;False;1,46199989319
IRN1996w;game;2017-04-28-15-36-43;5,0;43,0;1000;0,0;3,0;1,0;2,0;column;1,0;False;True;True;0,966000080109;False;1,0600001812
IRN1996w;game;2017-04-28-15-36-43;5,0;44,0;1000;1,0;0,0;3,0;2,0;column;0,0;False;False;False;0,967000007629;True;1,42700004578
IRN1996w;game;2017-04-28-15-36-43;5,0;45,0;1000;2,0;1,0;0,0;3,0;row;0,0;True;False;False;1,03299999237;False;1,33400011063
IRN1996w;game;2017-04-28-15-36-43;5,0;46,0;1000;1,0;0,0;2,0;3,0;column;0,0;True;False;False;0,799999952316;False;1,16799998283
IRN1996w;game;2017-04-28-15-36-43;5,0;47,0;1000;3,0;2,0;1,0;0,0;column;0,0;True;True;False;1,867000103;False;1,32699990273
IRN1996w;game;2017-04-28-15-36-43;5,0;48,0;1000;2,0;0,0;3,0;1,0;column;1,0;True;False;False;1,96700000763;False;0,828999996185
IRN1996w;game;2017-04-28-15-36-43;6,0;1,0;-100;1,0;0,0;3,0;2,0;column;1,0;False;True;True;1,08299994469;False;0,648999929428
IRN1996w;game;2017-04-28-15-36-43;6,0;2,0;-100;3,0;2,0;0,0;1,0;column;0,0;True;True;False;2,08399987221;False;0,97000002861
IRN1996w;game;2017-04-28-15-36-43;6,0;3,0;-100;2,0;0,0;3,0;1,0;row;1,0;False;True;False;2,01599979401;True;1,32500004768
IRN1996w;game;2017-04-28-15-36-43;6,0;4,0;-100;0,0;3,0;2,0;1,0;row;1,0;True;False;False;1,91700005531;False;0,970999956131
IRN1996w;game;2017-04-28-15-36-43;6,0;5,0;-100;0,0;3,0;1,0;2,0;column;0,0;True;True;False;1,84899997711;False;1,46900010109
IRN1996w;game;2017-04-28-15-36-43;6,0;6,0;-100;2,0;3,0;1,0;0,0;row;0,0;True;True;True;1,41800022125;True;0,666000127792
IRN1996w;game;2017-04-28-15-36-43;6,0;7,0;-100;0,0;2,0;3,0;1,0;row;0,0;False;True;False;1,44899988174;True;0,528000116348
IRN1996w;game;2017-04-28-15-36-43;6,0;8,0;-100;1,0;2,0;3,0;0,0;column;0,0;False;False;False;2,6810002327;True;0,928999900818
IRN1996w;game;2017-04-28-15-36-43;6,0;9,0;-100;3,0;2,0;1,0;0,0;row;0,0;False;False;False;1,58400011063;True;0,601999998093
IRN1996w;game;2017-04-28-15-36-43;6,0;10,0;-100;2,0;3,0;1,0;0,0;column;1,0;False;False;False;2,15099978447;True;1,43000006676
IRN1996w;game;2017-04-28-15-36-43;6,0;11,0;-100;1,0;3,0;0,0;2,0;column;0,0;False;True;False;1,75;True;1,39199995995
IRN1996w;game;2017-04-28-15-36-43;6,0;12,0;-100;0,0;1,0;3,0;2,0;row;0,0;False;False;False;1,11599993706;True;1,36500000954
IRN1996w;game;2017-04-28-15-36-43;6,0;13,0;-100;1,0;0,0;3,0;2,0;row;1,0;True;False;False;1,01799988747;False;1,09700012207
IRN1996w;game;2017-04-28-15-36-43;6,0;14,0;-100;1,0;3,0;0,0;2,0;row;1,0;False;False;False;1,01700019836;True;1,39299988747
IRN1996w;game;2017-04-28-15-36-43;6,0;15,0;-100;1,0;2,0;0,0;3,0;row;1,0;False;True;False;1,88400006294;True;0,830000162125
IRN1996w;game;2017-04-28-15-36-43;6,0;16,0;-100;3,0;2,0;0,0;1,0;row;0,0;True;True;True;1,11600017548;True;0,631000041962
IRN1996w;game;2017-04-28-15-36-43;6,0;17,0;-100;3,0;1,0;0,0;2,0;row;0,0;False;True;False;1,34699988365;True;0,532999992371
IRN1996w;game;2017-04-28-15-36-43;6,0;18,0;-100;3,0;2,0;0,0;1,0;column;1,0;True;True;True;2,08299994469;True;1,20299983025
IRN1996w;game;2017-04-28-15-36-43;6,0;19,0;-100;2,0;3,0;0,0;1,0;row;0,0;False;True;True;1,31700015068;False;1,16199994087
IRN1996w;game;2017-04-28-15-36-43;6,0;20,0;-100;1,0;3,0;0,0;2,0;column;0,0;True;False;True;1,18400001526;True;1,19899988174
IRN1996w;game;2017-04-28-15-36-43;6,0;21,0;-100;1,0;0,0;2,0;3,0;column;0,0;False;False;False;1,41699981689;True;0,795000076294
IRN1996w;game;2017-04-28-15-36-43;6,0;22,0;-100;3,0;0,0;1,0;2,0;column;0,0;True;False;True;1,94799995422;True;1,46700000763
IRN1996w;game;2017-04-28-15-36-43;6,0;23,0;-100;3,0;2,0;0,0;1,0;row;1,0;True;False;True;1,64800000191;True;1,19499993324
IRN1996w;game;2017-04-28-15-36-43;6,0;24,0;-100;0,0;1,0;3,0;2,0;row;0,0;True;True;True;1,38100004196;True;0,625
IRN1996w;game;2017-04-28-15-36-43;6,0;25,0;-100;0,0;3,0;1,0;2,0;column;0,0;False;False;True;1,21700000763;False;1,1970000267
IRN1996w;game;2017-04-28-15-36-43;6,0;26,0;-100;2,0;0,0;1,0;3,0;column;0,0;False;False;False;1,74899983406;True;0,90499997139
IRN1996w;game;2017-04-28-15-36-43;6,0;27,0;-100;1,0;0,0;3,0;2,0;row;1,0;False;True;False;1,75;True;1,42899990082
IRN1996w;game;2017-04-28-15-36-43;6,0;28,0;-100;2,0;1,0;3,0;0,0;row;0,0;False;True;False;1,58299994469;True;0,635999917984
IRN1996w;game;2017-04-28-15-36-43;6,0;29,0;-100;0,0;2,0;1,0;3,0;row;0,0;True;True;True;0,981999874115;True;0,90900015831
IRN1996w;game;2017-04-28-15-36-43;6,0;30,0;-100;1,0;2,0;3,0;0,0;row;0,0;True;False;True;0,884000062943;True;0,535000085831
IRN1996w;game;2017-04-28-15-36-43;6,0;31,0;-100;3,0;0,0;1,0;2,0;row;0,0;False;False;False;0,949000120163;True;1,22699999809
IRN1996w;game;2017-04-28-15-36-43;6,0;32,0;-100;1,0;2,0;0,0;3,0;column;0,0;True;True;True;1,48300004005;True;0,530999898911
IRN1996w;game;2017-04-28-15-36-43;6,0;33,0;-100;1,0;2,0;3,0;0,0;column;0,0;True;True;True;1,54999995232;True;0,729999780655
IRN1996w;game;2017-04-28-15-36-43;6,0;34,0;-100;1,0;2,0;3,0;0,0;column;1,0;False;True;True;1,31699991226;False;1,33299994469
IRN1996w;game;2017-04-28-15-36-43;6,0;35,0;-100;2,0;1,0;3,0;0,0;column;1,0;False;True;True;1,41599988937;False;0,995000123978
IRN1996w;game;2017-04-28-15-36-43;6,0;36,0;-100;0,0;3,0;1,0;2,0;row;0,0;True;False;True;0,917000055313;True;0,97000002861
IRN1996w;game;2017-04-28-15-36-43;6,0;37,0;-100;1,0;2,0;3,0;0,0;row;1,0;False;True;False;1,38400006294;True;0,726000070572
IRN1996w;game;2017-04-28-15-36-43;6,0;38,0;-100;0,0;3,0;1,0;2,0;column;1,0;False;True;True;1,11699986458;False;0,825999975204
IRN1996w;game;2017-04-28-15-36-43;6,0;39,0;-100;1,0;3,0;0,0;2,0;column;1,0;True;False;True;0,883000135422;True;0,770999908447
IRN1996w;game;2017-04-28-15-36-43;6,0;40,0;-100;3,0;2,0;1,0;0,0;row;1,0;True;True;True;1,04999995232;True;0,598000049591
IRN1996w;game;2017-04-28-15-36-43;6,0;41,0;-100;0,0;2,0;1,0;3,0;column;1,0;False;True;False;1,20900011063;True;1,50200009346
IRN1996w;game;2017-04-28-15-36-43;6,0;42,0;-100;0,0;3,0;2,0;1,0;row;1,0;False;True;True;1,24900007248;False;0,995000123978
IRN1996w;game;2017-04-28-15-36-43;6,0;43,0;-100;1,0;0,0;2,0;3,0;column;1,0;False;True;False;1,14999985695;True;0,793999910355
IRN1996w;game;2017-04-28-15-36-43;6,0;44,0;-100;2,0;0,0;3,0;1,0;row;0,0;True;False;True;1,14999985695;True;1,27100014687
IRN1996w;game;2017-04-28-15-36-43;6,0;45,0;-100;0,0;1,0;3,0;2,0;column;1,0;True;True;False;1,71600008011;False;1,29800009727
IRN1996w;game;2017-04-28-15-36-43;6,0;46,0;-100;2,0;0,0;3,0;1,0;column;1,0;True;False;False;1,31599998474;False;1,10000014305
IRN1996w;game;2017-04-28-15-36-43;6,0;47,0;-100;0,0;3,0;1,0;2,0;row;1,0;False;True;True;1,15000009537;False;1,1289999485
IRN1996w;game;2017-04-28-15-36-43;6,0;48,0;-100;1,0;2,0;0,0;3,0;column;1,0;False;True;True;1,117000103;False;0,503999948502
IRN1996w;game;2017-04-28-15-36-43;7,0;1,0;-100;1,0;0,0;2,0;3,0;column;0,0;True;False;True;1,41700005531;True;1,27099990845
IRN1996w;game;2017-04-28-15-36-43;7,0;2,0;-100;2,0;1,0;0,0;3,0;row;1,0;True;True;False;1,81599998474;False;1,00099992752
IRN1996w;game;2017-04-28-15-36-43;7,0;3,0;-100;2,0;0,0;1,0;3,0;column;0,0;True;False;True;1,35199999809;True;0,628000020981
IRN1996w;game;2017-04-28-15-36-43;7,0;4,0;-100;3,0;1,0;2,0;0,0;column;0,0;True;False;True;1,11599993706;True;0,964999914169
IRN1996w;game;2017-04-28-15-36-43;7,0;5,0;-100;2,0;3,0;1,0;0,0;column;0,0;False;False;False;1,21600008011;True;0,798000097275
IRN1996w;game;2017-04-28-15-36-43;7,0;6,0;-100;1,0;3,0;2,0;0,0;row;1,0;True;False;True;1,51699995995;True;0,626999855042
IRN1996w;game;2017-04-28-15-36-43;7,0;7,0;-100;0,0;3,0;2,0;1,0;column;1,0;False;False;True;1,14999985695;False;1,06799983978
IRN1996w;game;2017-04-28-15-36-43;7,0;8,0;-100;3,0;1,0;2,0;0,0;column;1,0;True;True;True;0,883999824524;True;1,32800006866
IRN1996w;game;2017-04-28-15-36-43;7,0;9,0;-100;0,0;3,0;2,0;1,0;column;0,0;False;True;False;1,31599998474;True;1,36600017548
IRN1996w;game;2017-04-28-15-36-43;7,0;10,0;-100;0,0;3,0;2,0;1,0;row;0,0;True;False;True;1,38400006294;True;0,695999860764
IRN1996w;game;2017-04-28-15-36-43;7,0;11,0;-100;3,0;1,0;2,0;0,0;row;1,0;True;True;True;1,11500000954;True;1,43099999428
IRN1996w;game;2017-04-28-15-36-43;7,0;12,0;-100;0,0;2,0;3,0;1,0;column;1,0;False;True;False;1,21700000763;True;1,19099998474
IRN1996w;game;2017-04-28-15-36-43;7,0;13,0;-100;0,0;1,0;2,0;3,0;column;0,0;True;False;True;1,21600008011;True;0,657999992371
IRN1996w;game;2017-04-28-15-36-43;7,0;14,0;-100;3,0;1,0;2,0;0,0;column;0,0;False;False;False;1,18300008774;True;1,39599990845
IRN1996w;game;2017-04-28-15-36-43;7,0;15,0;-100;0,0;1,0;3,0;2,0;column;1,0;False;True;False;1,45000004768;True;1,06399989128
IRN1996w;game;2017-04-28-15-36-43;7,0;16,0;-100;0,0;1,0;2,0;3,0;row;1,0;True;True;False;1,41700005531;False;0,841000080109
IRN1996w;game;2017-04-28-15-36-43;7,0;17,0;-100;1,0;0,0;3,0;2,0;column;0,0;False;False;False;0,850000143051;True;1,26200008392
IRN1996w;game;2017-04-28-15-36-43;7,0;18,0;-100;0,0;2,0;3,0;1,0;column;0,0;False;True;True;2,08299994469;False;1,20299983025
IRN1996w;game;2017-04-28-15-36-43;7,0;19,0;-100;1,0;0,0;3,0;2,0;column;1,0;True;True;True;1,01600003242;True;1,47000002861
IRN1996w;game;2017-04-28-15-36-43;7,0;20,0;-100;3,0;0,0;1,0;2,0;row;0,0;True;False;True;1,14999985695;True;1,2650001049
IRN1996w;game;2017-04-28-15-36-43;7,0;21,0;-100;3,0;0,0;2,0;1,0;row;1,0;True;True;False;1,41500020027;False;0,828999996185
IRN1996w;game;2017-04-28-15-36-43;7,0;22,0;-100;0,0;1,0;3,0;2,0;column;0,0;True;True;False;1,58399987221;False;1,13400006294
IRN1996w;game;2017-04-28-15-36-43;7,0;23,0;-100;1,0;2,0;0,0;3,0;column;0,0;False;True;False;1,31599998474;True;1,43400001526
IRN1996w;game;2017-04-28-15-36-43;7,0;24,0;-100;0,0;3,0;2,0;1,0;row;0,0;False;True;False;1,95000004768;True;0,830000162125
IRN1996w;game;2017-04-28-15-36-43;7,0;25,0;-100;2,0;0,0;3,0;1,0;row;0,0;False;False;False;1,44900012016;True;1,09699988365
IRN1996w;game;2017-04-28-15-36-43;7,0;26,0;-100;1,0;3,0;2,0;0,0;column;1,0;False;False;False;1,38400006294;True;1,03500008583
IRN1996w;game;2017-04-28-15-36-43;7,0;27,0;-100;3,0;1,0;2,0;0,0;row;0,0;False;False;False;0,883000135422;True;0,733000040054
IRN1996w;game;2017-04-28-15-36-43;7,0;28,0;-100;2,0;1,0;0,0;3,0;row;1,0;False;True;False;1,15000009537;True;0,97000002861
IRN1996w;game;2017-04-28-15-36-43;7,0;29,0;-100;2,0;3,0;0,0;1,0;row;1,0;False;False;False;1,17999982834;True;1,06200003624
IRN1996w;game;2017-04-28-15-36-43;7,0;30,0;-100;2,0;3,0;1,0;0,0;row;1,0;False;False;False;1,81700015068;True;0,596999883652
IRN1996w;game;2017-04-28-15-36-43;7,0;31,0;-100;3,0;0,0;2,0;1,0;row;0,0;True;True;True;1,91499996185;True;0,934000015259
IRN1996w;game;2017-04-28-15-36-43;7,0;32,0;-100;0,0;3,0;1,0;2,0;row;1,0;True;True;True;2,15199995041;True;1,2539999485
IRN1996w;game;2017-04-28-15-36-43;7,0;33,0;-100;1,0;3,0;2,0;0,0;column;1,0;True;False;True;1,34899997711;True;1,19200015068
IRN1996w;game;2017-04-28-15-36-43;7,0;34,0;-100;2,0;3,0;0,0;1,0;row;1,0;True;True;True;1,5490000248;True;1,46399998665
IRN1996w;game;2017-04-28-15-36-43;7,0;35,0;-100;3,0;1,0;0,0;2,0;row;0,0;True;False;True;1,28299999237;True;1,36299991608
IRN1996w;game;2017-04-28-15-36-43;7,0;36,0;-100;1,0;3,0;2,0;0,0;column;0,0;True;False;False;2,21600008011;False;1,3069999218
IRN1996w;game;2017-04-28-15-36-43;7,0;37,0;-100;0,0;2,0;1,0;3,0;row;1,0;False;True;False;1,08400011063;True;1,46199989319
IRN1996w;game;2017-04-28-15-36-43;7,0;38,0;-100;0,0;1,0;2,0;3,0;column;1,0;False;True;True;1,41599988937;False;0,667000055313
IRN1996w;game;2017-04-28-15-36-43;7,0;39,0;-100;1,0;3,0;2,0;0,0;row;1,0;False;False;False;1,31700015068;True;0,963999986649
IRN1996w;game;2017-04-28-15-36-43;7,0;40,0;-100;0,0;2,0;3,0;1,0;row;1,0;False;False;False;1,08399987221;True;0,865000009537
IRN1996w;game;2017-04-28-15-36-43;7,0;41,0;-100;1,0;0,0;3,0;2,0;row;0,0;True;False;True;0,949000120163;True;0,799000024796
IRN1996w;game;2017-04-28-15-36-43;7,0;42,0;-100;1,0;0,0;2,0;3,0;row;1,0;False;True;False;1,88400006294;True;1,367000103
IRN1996w;game;2017-04-28-15-36-43;7,0;43,0;-100;2,0;3,0;0,0;1,0;row;0,0;True;False;True;1,45000004768;True;0,625999927521
IRN1996w;game;2017-04-28-15-36-43;7,0;44,0;-100;1,0;3,0;0,0;2,0;row;1,0;True;False;True;1,51600003242;True;1,19499993324
IRN1996w;game;2017-04-28-15-36-43;7,0;45,0;-100;2,0;0,0;1,0;3,0;row;1,0;True;True;True;1,28299999237;True;1,19799995422
IRN1996w;game;2017-04-28-15-36-43;7,0;46,0;-100;3,0;1,0;0,0;2,0;row;1,0;False;True;False;1,617000103;True;0,930999994278
IRN1996w;game;2017-04-28-15-36-43;7,0;47,0;-100;0,0;1,0;2,0;3,0;column;0,0;False;True;False;1,21499991417;True;1,00499987602
IRN1996w;game;2017-04-28-15-36-43;7,0;48,0;-100;1,0;0,0;2,0;3,0;row;0,0;True;True;False;2,08200001717;False;1,06500005722
IRN1996w;game;2017-04-28-15-36-43;8,0;1,0;1000;3,0;2,0;0,0;1,0;column;1,0;False;True;False;0,899999856949;True;1,33200001717
IRN1996w;game;2017-04-28-15-36-43;8,0;2,0;1000;3,0;1,0;0,0;2,0;row;1,0;True;True;True;1,5;True;0,634999990463
IRN1996w;game;2017-04-28-15-36-43;8,0;3,0;1000;1,0;3,0;2,0;0,0;column;1,0;True;False;True;1,93400001526;True;0,637000083923
IRN1996w;game;2017-04-28-15-36-43;8,0;4,0;1000;3,0;1,0;0,0;2,0;column;0,0;True;False;True;0,898999929428;True;1,16400003433
IRN1996w;game;2017-04-28-15-36-43;8,0;5,0;1000;0,0;3,0;2,0;1,0;column;0,0;False;True;False;0,967000007629;True;1,44099998474
IRN1996w;game;2017-04-28-15-36-43;8,0;6,0;1000;2,0;1,0;0,0;3,0;column;1,0;True;True;True;0,899999856949;True;1,13300013542
IRN1996w;game;2017-04-28-15-36-43;8,0;7,0;1000;0,0;3,0;2,0;1,0;column;1,0;True;False;False;0,699000120163;False;0,700000047684
IRN1996w;game;2017-04-28-15-36-43;8,0;8,0;1000;0,0;2,0;1,0;3,0;column;1,0;False;False;False;0,931999921799;True;1,49399995804
IRN1996w;game;2017-04-28-15-36-43;8,0;9,0;1000;2,0;3,0;0,0;1,0;column;0,0;False;True;False;0,766000032425;True;1,4279999733
IRN1996w;game;2017-04-28-15-36-43;8,0;10,0;1000;1,0;0,0;2,0;3,0;row;0,0;False;True;False;2,10000014305;True;0,698000192642
IRN1996w;game;2017-04-28-15-36-43;8,0;11,0;1000;2,0;3,0;0,0;1,0;row;1,0;True;False;False;1,83400011063;False;0,667000055313
IRN1996w;game;2017-04-28-15-36-43;8,0;12,0;1000;1,0;3,0;2,0;0,0;row;1,0;False;True;False;0,865000009537;True;1,16899991035
IRN1996w;game;2017-04-28-15-36-43;8,0;13,0;1000;3,0;2,0;0,0;1,0;row;0,0;True;True;True;1,23300004005;True;1,4359998703
IRN1996w;game;2017-04-28-15-36-43;8,0;14,0;1000;3,0;1,0;2,0;0,0;column;0,0;True;True;False;0,832999944687;False;0,761000156403
IRN1996w;game;2017-04-28-15-36-43;8,0;15,0;1000;0,0;3,0;2,0;1,0;row;0,0;True;False;False;2,03299999237;False;1,19400000572
IRN1996w;game;2017-04-28-15-36-43;8,0;16,0;1000;2,0;3,0;1,0;0,0;column;1,0;False;False;False;1,10000014305;True;1,06299996376
IRN1996w;game;2017-04-28-15-36-43;8,0;17,0;1000;0,0;3,0;1,0;2,0;row;0,0;False;True;True;1,29999995232;False;1,2009999752
IRN1996w;game;2017-04-28-15-36-43;8,0;18,0;1000;1,0;2,0;3,0;0,0;column;0,0;True;True;True;2,70000004768;True;0,960000038147
IRN1996w;game;2017-04-28-15-36-43;8,0;19,0;1000;0,0;3,0;1,0;2,0;row;1,0;False;True;False;1,86599993706;True;1,19799995422
IRN1996w;game;2017-04-28-15-36-43;8,0;20,0;1000;3,0;2,0;0,0;1,0;row;0,0;False;True;False;0,964000225067;True;1,30400013924
IRN1996w;game;2017-04-28-15-36-43;8,0;21,0;1000;0,0;2,0;3,0;1,0;column;1,0;False;True;False;1,03299999237;True;1,23099994659
IRN1996w;game;2017-04-28-15-36-43;8,0;22,0;1000;2,0;1,0;3,0;0,0;column;0,0;False;False;False;2,13199996948;True;1,16700005531
IRN1996w;game;2017-04-28-15-36-43;8,0;23,0;1000;1,0;3,0;0,0;2,0;row;1,0;True;True;False;1,23299980164;False;1,03500008583
IRN1996w;game;2017-04-28-15-36-43;8,0;24,0;1000;2,0;0,0;3,0;1,0;column;1,0;False;False;False;0,799999952316;True;0,860999822617
IRN1996w;game;2017-04-28-15-36-43;8,0;25,0;1000;1,0;0,0;2,0;3,0;column;0,0;False;False;False;1,26699995995;True;0,763000011444
IRN1996w;game;2017-04-28-15-36-43;8,0;26,0;1000;1,0;3,0;0,0;2,0;row;0,0;False;True;False;1,09999990463;True;0,797999858856
IRN1996w;game;2017-04-28-15-36-43;8,0;27,0;1000;0,0;2,0;3,0;1,0;row;1,0;True;False;False;0,933000087738;False;0,666000127792
IRN1996w;game;2017-04-28-15-36-43;8,0;28,0;1000;3,0;0,0;1,0;2,0;column;1,0;False;False;True;2,36699986458;False;1,46099996567
IRN1996w;game;2017-04-28-15-36-43;8,0;29,0;1000;2,0;3,0;1,0;0,0;row;0,0;True;False;True;0,898999929428;True;1,36500000954
IRN1996w;game;2017-04-28-15-36-43;8,0;30,0;1000;2,0;3,0;1,0;0,0;column;1,0;True;True;False;0,966000080109;False;1,29600000381
IRN1996w;game;2017-04-28-15-36-43;8,0;31,0;1000;3,0;0,0;1,0;2,0;column;1,0;True;True;True;1,46600008011;True;1,49699997902
IRN1996w;game;2017-04-28-15-36-43;8,0;32,0;1000;1,0;0,0;3,0;2,0;column;1,0;True;False;True;1,40000009537;True;1,36800003052
IRN1996w;game;2017-04-28-15-36-43;8,0;33,0;1000;3,0;1,0;2,0;0,0;row;1,0;True;False;True;2,36699986458;True;1,49499988556
IRN1996w;game;2017-04-28-15-36-43;8,0;34,0;1000;3,0;0,0;1,0;2,0;column;0,0;False;True;False;1,0680000782;True;0,898000001907
IRN1996w;game;2017-04-28-15-36-43;8,0;35,0;1000;1,0;2,0;0,0;3,0;column;0,0;True;False;False;1,29999995232;False;1,36800003052
IRN1996w;game;2017-04-28-15-36-43;8,0;36,0;1000;2,0;0,0;3,0;1,0;column;0,0;True;False;False;1,60000014305;False;1,25800013542
IRN1996w;game;2017-04-28-15-36-43;8,0;37,0;1000;2,0;3,0;1,0;0,0;column;0,0;True;True;False;1,03299999237;False;1,22399997711
IRN1996w;game;2017-04-28-15-36-43;8,0;38,0;1000;2,0;0,0;1,0;3,0;row;1,0;True;False;True;1,09999990463;True;1,23599982262
IRN1996w;game;2017-04-28-15-36-43;8,0;39,0;1000;2,0;3,0;1,0;0,0;row;0,0;False;True;False;0,799999952316;True;1,06599998474
IRN1996w;game;2017-04-28-15-36-43;8,0;40,0;1000;1,0;0,0;2,0;3,0;row;1,0;True;False;True;2,39899992943;True;1,22999978065
IRN1996w;game;2017-04-28-15-36-43;8,0;41,0;1000;3,0;2,0;1,0;0,0;row;1,0;True;True;True;1,53400015831;True;1,49800014496
IRN1996w;game;2017-04-28-15-36-43;8,0;42,0;1000;0,0;2,0;1,0;3,0;row;1,0;True;False;True;1,69999980927;True;0,602999925613
IRN1996w;game;2017-04-28-15-36-43;8,0;43,0;1000;0,0;3,0;2,0;1,0;row;1,0;False;True;False;1,33400011063;True;1,29099988937
IRN1996w;game;2017-04-28-15-36-43;8,0;44,0;1000;0,0;3,0;1,0;2,0;column;0,0;False;True;False;1,80800008774;True;1,16899991035
IRN1996w;game;2017-04-28-15-36-43;8,0;45,0;1000;1,0;0,0;3,0;2,0;column;1,0;False;False;False;1,03200006485;True;0,570999860764
IRN1996w;game;2017-04-28-15-36-43;8,0;46,0;1000;0,0;3,0;2,0;1,0;column;0,0;True;False;False;1,87299990654;False;1,0609998703
IRN1996w;game;2017-04-28-15-36-43;8,0;47,0;1000;3,0;1,0;2,0;0,0;column;1,0;True;True;True;1,63399982452;True;1,23200011253
IRN1996w;game;2017-04-28-15-36-43;8,0;48,0;1000;0,0;1,0;2,0;3,0;column;1,0;True;True;True;0,665999889374;True;1,42899990082
IRN1996w;game;2017-04-28-15-36-43;9,0;1,0;100;3,0;0,0;2,0;1,0;row;0,0;True;False;True;1,0;True;0,578000068665
IRN1996w;game;2017-04-28-15-36-43;9,0;2,0;100;1,0;2,0;3,0;0,0;row;0,0;False;True;False;1,132999897;True;1,17199993134
IRN1996w;game;2017-04-28-15-36-43;9,0;3,0;100;3,0;0,0;2,0;1,0;row;1,0;False;False;True;0,932999849319;False;1,50300002098
IRN1996w;game;2017-04-28-15-36-43;9,0;4,0;100;0,0;3,0;1,0;2,0;row;0,0;False;True;False;1,06599998474;True;1,26200008392
IRN1996w;game;2017-04-28-15-36-43;9,0;5,0;100;2,0;0,0;3,0;1,0;column;1,0;True;True;True;1,59999990463;True;0,760999917984
IRN1996w;game;2017-04-28-15-36-43;9,0;6,0;100;2,0;0,0;1,0;3,0;row;0,0;False;False;False;0,867000102997;True;1,1289999485
IRN1996w;game;2017-04-28-15-36-43;9,0;7,0;100;2,0;0,0;1,0;3,0;row;0,0;True;False;True;1,56500005722;True;1,20000004768
IRN1996w;game;2017-04-28-15-36-43;9,0;8,0;100;3,0;0,0;1,0;2,0;column;1,0;True;False;False;1,0;False;0,692999839783
IRN1996w;game;2017-04-28-15-36-43;9,0;9,0;100;1,0;3,0;2,0;0,0;column;1,0;True;True;False;2,10100007057;False;0,594999790192
IRN1996w;game;2017-04-28-15-36-43;9,0;10,0;100;2,0;0,0;3,0;1,0;row;1,0;True;True;True;1,79999995232;True;0,870000123978
IRN1996w;game;2017-04-28-15-36-43;9,0;11,0;100;0,0;2,0;1,0;3,0;row;0,0;True;False;True;1,09999990463;True;1,26300001144
IRN1996w;game;2017-04-28-15-36-43;9,0;12,0;100;0,0;2,0;3,0;1,0;row;0,0;True;True;False;1,56700015068;False;1,07400012016
IRN1996w;game;2017-04-28-15-36-43;9,0;13,0;100;0,0;1,0;2,0;3,0;row;1,0;True;False;True;1,60099983215;True;0,931999921799
IRN1996w;game;2017-04-28-15-36-43;9,0;14,0;100;2,0;1,0;3,0;0,0;column;1,0;False;True;False;1,96700000763;True;0,796000003815
IRN1996w;game;2017-04-28-15-36-43;9,0;15,0;100;0,0;2,0;1,0;3,0;column;1,0;True;True;True;0,932000160217;True;1,09800004959
IRN1996w;game;2017-04-28-15-36-43;9,0;16,0;100;3,0;2,0;1,0;0,0;row;0,0;True;True;True;1,4319999218;True;0,733999967575
IRN1996w;game;2017-04-28-15-36-43;9,0;17,0;100;1,0;3,0;0,0;2,0;column;0,0;False;True;False;1,50099992752;True;0,801999807358
IRN1996w;game;2017-04-28-15-36-43;9,0;18,0;100;3,0;2,0;0,0;1,0;column;0,0;False;True;False;1,66699981689;True;1,0609998703
IRN1996w;game;2017-04-28-15-36-43;9,0;19,0;100;0,0;3,0;1,0;2,0;row;1,0;False;False;False;1,36599993706;True;1,10299992561
IRN1996w;game;2017-04-28-15-36-43;9,0;20,0;100;1,0;0,0;2,0;3,0;column;1,0;False;False;False;1,36800003052;True;0,730000019073
IRN1996w;game;2017-04-28-15-36-43;9,0;21,0;100;3,0;2,0;0,0;1,0;row;0,0;True;True;False;1,73399996758;False;1,23099994659
IRN1996w;game;2017-04-28-15-36-43;9,0;22,0;100;2,0;3,0;1,0;0,0;column;1,0;False;True;False;1,66600012779;True;0,536000013351
IRN1996w;game;2017-04-28-15-36-43;9,0;23,0;100;2,0;1,0;0,0;3,0;column;0,0;True;True;True;1,59899997711;True;1,36099982262
IRN1996w;game;2017-04-28-15-36-43;9,0;24,0;100;3,0;1,0;2,0;0,0;column;1,0;False;False;True;1,13400006294;False;0,659999847412
IRN1996w;game;2017-04-28-15-36-43;9,0;25,0;100;2,0;0,0;3,0;1,0;column;0,0;True;True;True;0,96599984169;True;1,16000008583
IRN1996w;game;2017-04-28-15-36-43;9,0;26,0;100;2,0;0,0;1,0;3,0;column;0,0;True;True;True;0,733999967575;True;1,30499982834
IRN1996w;game;2017-04-28-15-36-43;9,0;27,0;100;2,0;1,0;0,0;3,0;row;1,0;False;False;False;1,66699981689;True;1,20100021362
IRN1996w;game;2017-04-28-15-36-43;9,0;28,0;100;1,0;2,0;0,0;3,0;column;0,0;True;False;True;1,73199987411;True;1,30400013924
IRN1996w;game;2017-04-28-15-36-43;9,0;29,0;100;0,0;2,0;1,0;3,0;row;1,0;False;False;False;1,40000009537;True;1,32299995422
IRN1996w;game;2017-04-28-15-36-43;9,0;30,0;100;1,0;3,0;2,0;0,0;row;0,0;True;False;True;0,766999959946;True;0,56500005722
IRN1996w;game;2017-04-28-15-36-43;9,0;31,0;100;1,0;2,0;3,0;0,0;column;1,0;False;False;False;1,29999995232;True;1,36299991608
IRN1996w;game;2017-04-28-15-36-43;9,0;32,0;100;1,0;0,0;2,0;3,0;row;1,0;False;True;False;1,56599998474;True;1,46599984169
IRN1996w;game;2017-04-28-15-36-43;9,0;33,0;100;2,0;1,0;0,0;3,0;column;1,0;False;True;False;2,03400015831;True;0,799000024796
IRN1996w;game;2017-04-28-15-36-43;9,0;34,0;100;1,0;3,0;2,0;0,0;row;1,0;False;False;False;1,09999990463;True;1,46799993515
IRN1996w;game;2017-04-28-15-36-43;9,0;35,0;100;2,0;1,0;3,0;0,0;row;1,0;False;True;True;1,89800000191;False;1,42899990082
IRN1996w;game;2017-04-28-15-36-43;9,0;36,0;100;0,0;2,0;3,0;1,0;row;0,0;False;False;False;1,56599998474;True;0,526000022888
IRN1996w;game;2017-04-28-15-36-43;9,0;37,0;100;2,0;0,0;3,0;1,0;row;1,0;False;True;False;0,832999944687;True;1,02899980545
IRN1996w;game;2017-04-28-15-36-43;9,0;38,0;100;3,0;0,0;2,0;1,0;column;1,0;True;True;True;1,06699991226;True;1,16100001335
IRN1996w;game;2017-04-28-15-36-43;9,0;39,0;100;3,0;1,0;2,0;0,0;row;0,0;False;True;False;0,899999856949;True;0,694000005722
IRN1996w;game;2017-04-28-15-36-43;9,0;40,0;100;2,0;3,0;1,0;0,0;column;0,0;True;True;True;1,0;True;0,635000228882
IRN1996w;game;2017-04-28-15-36-43;9,0;41,0;100;0,0;3,0;2,0;1,0;row;1,0;True;False;False;1,70000004768;False;1,32899999619
IRN1996w;game;2017-04-28-15-36-43;9,0;42,0;100;3,0;0,0;1,0;2,0;row;1,0;True;False;False;1,89999985695;False;0,933000087738
IRN1996w;game;2017-04-28-15-36-43;9,0;43,0;100;2,0;3,0;0,0;1,0;row;0,0;False;False;False;1,73300004005;True;0,659999847412
IRN1996w;game;2017-04-28-15-36-43;9,0;44,0;100;2,0;3,0;0,0;1,0;column;1,0;False;True;False;1,13199996948;True;0,664999961853
IRN1996w;game;2017-04-28-15-36-43;9,0;45,0;100;0,0;3,0;2,0;1,0;row;1,0;False;False;False;2,23200011253;True;1,30400013924
IRN1996w;game;2017-04-28-15-36-43;9,0;46,0;100;0,0;1,0;2,0;3,0;column;1,0;False;False;True;1,36500000954;False;0,9359998703
IRN1996w;game;2017-04-28-15-36-43;9,0;47,0;100;0,0;1,0;3,0;2,0;column;1,0;False;True;True;0,900000095367;False;0,728999853134
IRN1996w;game;2017-04-28-15-36-43;9,0;48,0;100;0,0;1,0;2,0;3,0;column;0,0;True;False;True;1,73300004005;True;1,23000001907
IRN1996w;game;2017-04-28-15-36-43;10,0;1,0;-100;3,0;0,0;1,0;2,0;column;0,0;False;False;False;1,15100002289;True;1,1859998703
IRN1996w;game;2017-04-28-15-36-43;10,0;2,0;-100;3,0;1,0;2,0;0,0;row;0,0;True;True;False;1,18300008774;False;1,0039999485
IRN1996w;game;2017-04-28-15-36-43;10,0;3,0;-100;0,0;1,0;2,0;3,0;row;0,0;False;False;False;1,78400015831;True;0,794000148773
IRN1996w;game;2017-04-28-15-36-43;10,0;4,0;-100;0,0;2,0;1,0;3,0;column;0,0;True;True;True;1,41599988937;True;1,43700003624
IRN1996w;game;2017-04-28-15-36-43;10,0;5,0;-100;1,0;2,0;3,0;0,0;column;1,0;True;True;True;1,04899978638;True;0,538000106812
IRN1996w;game;2017-04-28-15-36-43;10,0;6,0;-100;0,0;1,0;3,0;2,0;row;1,0;False;False;False;1,98399996758;True;0,870000123978
IRN1996w;game;2017-04-28-15-36-43;10,0;7,0;-100;3,0;1,0;2,0;0,0;column;1,0;False;True;True;0,983999967575;False;0,694000005722
IRN1996w;game;2017-04-28-15-36-43;10,0;8,0;-100;1,0;2,0;0,0;3,0;column;1,0;True;False;True;1,01600003242;True;0,601999998093
IRN1996w;game;2017-04-28-15-36-43;10,0;9,0;-100;2,0;1,0;3,0;0,0;column;1,0;True;False;True;0,816999912262;True;1,16999983788
IRN1996w;game;2017-04-28-15-36-43;10,0;10,0;-100;3,0;0,0;1,0;2,0;column;1,0;True;False;True;1,117000103;True;1,00099992752
IRN1996w;game;2017-04-28-15-36-43;10,0;11,0;-100;2,0;1,0;0,0;3,0;column;1,0;True;False;True;1,31699991226;True;1,1970000267
IRN1996w;game;2017-04-28-15-36-43;10,0;12,0;-100;3,0;2,0;0,0;1,0;row;1,0;False;True;False;1,71500015259;True;0,791999816895
IRN1996w;game;2017-04-28-15-36-43;10,0;13,0;-100;3,0;2,0;1,0;0,0;column;1,0;True;False;False;1,31700015068;False;1,23099994659
IRN1996w;game;2017-04-28-15-36-43;10,0;14,0;-100;2,0;1,0;3,0;0,0;row;1,0;True;True;True;1,54699993134;True;1,45900011063
IRN1996w;game;2017-04-28-15-36-43;10,0;15,0;-100;3,0;2,0;0,0;1,0;row;0,0;False;True;True;0,883999824524;False;0,960999965668
IRN1996w;game;2017-04-28-15-36-43;10,0;16,0;-100;3,0;0,0;1,0;2,0;row;1,0;True;False;True;0,983000040054;True;0,736000061035
IRN1996w;game;2017-04-28-15-36-43;10,0;17,0;-100;1,0;2,0;0,0;3,0;row;0,0;True;False;True;1,05000019073;True;1,46300005913
IRN1996w;game;2017-04-28-15-36-43;10,0;18,0;-100;1,0;0,0;2,0;3,0;column;1,0;True;True;False;1,21599984169;False;1,49800014496
IRN1996w;game;2017-04-28-15-36-43;10,0;19,0;-100;3,0;2,0;1,0;0,0;row;1,0;False;True;False;2,34900021553;True;1,23300004005
IRN1996w;game;2017-04-28-15-36-43;10,0;20,0;-100;0,0;1,0;2,0;3,0;row;1,0;False;True;False;1,68400001526;True;1,49300003052
IRN1996w;game;2017-04-28-15-36-43;10,0;21,0;-100;3,0;0,0;2,0;1,0;row;0,0;False;True;False;1,01499986649;True;0,90700006485
IRN1996w;game;2017-04-28-15-36-43;10,0;22,0;-100;0,0;3,0;2,0;1,0;column;0,0;True;True;True;1,08299994469;True;1,17000007629
IRN1996w;game;2017-04-28-15-36-43;10,0;23,0;-100;2,0;3,0;1,0;0,0;row;1,0;True;False;True;1,04999995232;True;0,697000026703
IRN1996w;game;2017-04-28-15-36-43;10,0;24,0;-100;3,0;1,0;0,0;2,0;column;0,0;True;False;False;1,31399989128;False;0,625
IRN1996w;game;2017-04-28-15-36-43;10,0;25,0;-100;2,0;1,0;0,0;3,0;column;1,0;False;True;False;2,08399987221;True;0,600999832153
IRN1996w;game;2017-04-28-15-36-43;10,0;26,0;-100;1,0;0,0;2,0;3,0;row;1,0;True;True;False;0,881999969482;False;1,16799998283
IRN1996w;game;2017-04-28-15-36-43;10,0;27,0;-100;1,0;2,0;0,0;3,0;row;0,0;False;False;True;1,08400011063;False;0,861999988556
IRN1996w;game;2017-04-28-15-36-43;10,0;28,0;-100;2,0;1,0;0,0;3,0;column;0,0;False;False;False;1,71700000763;True;1,32699990273
IRN1996w;game;2017-04-28-15-36-43;10,0;29,0;-100;3,0;0,0;2,0;1,0;column;0,0;True;True;True;1,34999990463;True;0,605999946594
IRN1996w;game;2017-04-28-15-36-43;10,0;30,0;-100;2,0;1,0;3,0;0,0;row;0,0;True;True;False;1,04800009727;False;1,43799996376
IRN1996w;game;2017-04-28-15-36-43;10,0;31,0;-100;0,0;2,0;1,0;3,0;row;1,0;True;False;False;1,61599993706;False;0,526999950409
IRN1996w;game;2017-04-28-15-36-43;10,0;32,0;-100;2,0;1,0;0,0;3,0;column;0,0;True;False;True;1,38300013542;True;1,22600007057
IRN1996w;game;2017-04-28-15-36-43;10,0;33,0;-100;3,0;2,0;0,0;1,0;column;1,0;False;False;False;1,58499979973;True;0,625
IRN1996w;game;2017-04-28-15-36-43;10,0;34,0;-100;3,0;2,0;1,0;0,0;column;0,0;False;True;False;0,949000120163;True;0,731999874115
IRN1996w;game;2017-04-28-15-36-43;10,0;35,0;-100;2,0;0,0;1,0;3,0;column;1,0;False;False;False;1,6819999218;True;1,46399998665
IRN1996w;game;2017-04-28-15-36-43;10,0;36,0;-100;2,0;0,0;3,0;1,0;row;1,0;True;True;True;1,74899983406;True;1,30500006676
IRN1996w;game;2017-04-28-15-36-43;10,0;37,0;-100;3,0;1,0;0,0;2,0;column;1,0;True;False;True;1,382999897;True;1,03400015831
IRN1996w;game;2017-04-28-15-36-43;10,0;38,0;-100;3,0;0,0;1,0;2,0;column;1,0;False;True;False;1,31599998474;True;0,594000101089
IRN1996w;game;2017-04-28-15-36-43;10,0;39,0;-100;0,0;2,0;3,0;1,0;column;1,0;True;True;True;2,01700019836;True;0,637000083923
IRN1996w;game;2017-04-28-15-36-43;10,0;40,0;-100;1,0;3,0;2,0;0,0;column;0,0;False;True;False;1,21700000763;True;1,36800003052
IRN1996w;game;2017-04-28-15-36-43;10,0;41,0;-100;2,0;3,0;0,0;1,0;column;0,0;True;False;True;0,983000040054;True;0,90399980545
IRN1996w;game;2017-04-28-15-36-43;10,0;42,0;-100;2,0;1,0;3,0;0,0;row;1,0;False;True;True;1,41700005531;False;1,09899997711
IRN1996w;game;2017-04-28-15-36-43;10,0;43,0;-100;1,0;2,0;0,0;3,0;row;1,0;True;False;False;1,18399977684;False;1,16100001335
IRN1996w;game;2017-04-28-15-36-43;10,0;44,0;-100;2,0;1,0;3,0;0,0;column;0,0;True;True;True;1,71700000763;True;1,1930000782
IRN1996w;game;2017-04-28-15-36-43;10,0;45,0;-100;2,0;0,0;1,0;3,0;row;0,0;False;False;False;1,21700000763;True;0,734999895096
IRN1996w;game;2017-04-28-15-36-43;10,0;46,0;-100;1,0;3,0;2,0;0,0;row;0,0;True;False;False;0,917999982834;False;0,763999938965
IRN1996w;game;2017-04-28-15-36-43;10,0;47,0;-100;0,0;2,0;1,0;3,0;column;1,0;True;False;True;1,08400011063;True;1,4350001812
IRN1996w;game;2017-04-28-15-36-43;10,0;48,0;-100;2,0;0,0;3,0;1,0;column;0,0;False;False;False;1,21899986267;True;0,599999904633
IRN1996w;game;2017-04-28-15-36-43;11,0;1,0;100;2,0;1,0;3,0;0,0;row;1,0;True;True;True;0,865999937057;True;1,46099996567
IRN1996w;game;2017-04-28-15-36-43;11,0;2,0;100;0,0;2,0;1,0;3,0;row;1,0;True;False;False;1,0;False;0,694999933243
IRN1996w;game;2017-04-28-15-36-43;11,0;3,0;100;2,0;3,0;1,0;0,0;row;1,0;False;True;False;1,30000019073;True;1,50099992752
IRN1996w;game;2017-04-28-15-36-43;11,0;4,0;100;1,0;3,0;0,0;2,0;column;1,0;False;True;True;0,96599984169;False;0,968999862671
IRN1996w;game;2017-04-28-15-36-43;11,0;5,0;100;1,0;2,0;3,0;0,0;row;1,0;False;True;False;1,09999990463;True;1,0039999485
IRN1996w;game;2017-04-28-15-36-43;11,0;6,0;100;2,0;3,0;1,0;0,0;row;0,0;True;True;False;1,867000103;False;1,3679997921
IRN1996w;game;2017-04-28-15-36-43;11,0;7,0;100;0,0;1,0;3,0;2,0;row;1,0;False;False;True;1,03400015831;False;1,42300009727
IRN1996w;game;2017-04-28-15-36-43;11,0;8,0;100;1,0;0,0;2,0;3,0;row;0,0;True;False;True;1,09999990463;True;1,22699999809
IRN1996w;game;2017-04-28-15-36-43;11,0;9,0;100;1,0;2,0;0,0;3,0;column;1,0;True;True;False;0,966000080109;False;0,631000041962
IRN1996w;game;2017-04-28-15-36-43;11,0;10,0;100;1,0;3,0;0,0;2,0;row;0,0;True;True;True;0,93399977684;True;1,29000020027
IRN1996w;game;2017-04-28-15-36-43;11,0;11,0;100;1,0;0,0;3,0;2,0;column;1,0;True;False;True;0,698999881744;True;1,125
IRN1996w;game;2017-04-28-15-36-43;11,0;12,0;100;0,0;2,0;3,0;1,0;column;1,0;False;True;False;1,19999980927;True;1,47200012207
IRN1996w;game;2017-04-28-15-36-43;11,0;13,0;100;0,0;2,0;3,0;1,0;row;1,0;True;True;False;0,834000110626;False;1,39599990845
IRN1996w;game;2017-04-28-15-36-43;11,0;14,0;100;0,0;2,0;1,0;3,0;column;0,0;False;True;True;1,06699991226;False;0,871000051498
IRN1996w;game;2017-04-28-15-36-43;11,0;15,0;100;3,0;1,0;0,0;2,0;row;0,0;False;True;False;1,46700000763;True;1,20299983025
IRN1996w;game;2017-04-28-15-36-43;11,0;16,0;100;2,0;3,0;1,0;0,0;row;1,0;True;False;True;1,23300004005;True;1,1289999485
IRN1996w;game;2017-04-28-15-36-43;11,0;17,0;100;1,0;0,0;2,0;3,0;row;1,0;True;True;True;1,59999990463;True;0,603999853134
IRN1996w;game;2017-04-28-15-36-43;11,0;18,0;100;1,0;2,0;3,0;0,0;row;0,0;True;True;True;1,40000009537;True;1,2570002079
IRN1996w;game;2017-04-28-15-36-43;11,0;19,0;100;0,0;3,0;1,0;2,0;column;1,0;False;True;False;1,20000004768;True;0,858999967575
IRN1996w;game;2017-04-28-15-36-43;11,0;20,0;100;3,0;0,0;2,0;1,0;column;0,0;False;True;False;0,931999921799;True;1,39400005341
IRN1996w;game;2017-04-28-15-36-43;11,0;21,0;100;1,0;3,0;0,0;2,0;row;1,0;False;False;False;1,66500020027;True;1,42499995232
IRN1996w;game;2017-04-28-15-36-43;11,0;22,0;100;2,0;3,0;0,0;1,0;row;0,0;True;False;True;0,999000072479;True;1,09800004959
IRN1996w;game;2017-04-28-15-36-43;11,0;23,0;100;3,0;1,0;0,0;2,0;row;0,0;True;True;True;0,862999916077;True;1,2610001564
IRN1996w;game;2017-04-28-15-36-43;11,0;24,0;100;3,0;2,0;1,0;0,0;column;0,0;True;True;False;0,733999967575;False;1,20399999619
IRN1996w;game;2017-04-28-15-36-43;11,0;25,0;100;0,0;3,0;2,0;1,0;column;0,0;False;False;False;2,03399991989;True;0,763999938965
IRN1996w;game;2017-04-28-15-36-43;11,0;26,0;100;2,0;3,0;0,0;1,0;column;0,0;True;False;True;1,29999995232;True;1,37000012398
IRN1996w;game;2017-04-28-15-36-43;11,0;27,0;100;3,0;0,0;1,0;2,0;column;1,0;False;False;True;0,998999834061;False;1,29600000381
IRN1996w;game;2017-04-28-15-36-43;11,0;28,0;100;1,0;3,0;0,0;2,0;column;0,0;True;False;True;0,733000040054;True;0,891999959946
IRN1996w;game;2017-04-28-15-36-43;11,0;29,0;100;1,0;3,0;0,0;2,0;row;0,0;False;False;True;1,33399987221;False;1,36100006104
IRN1996w;game;2017-04-28-15-36-43;11,0;30,0;100;1,0;0,0;2,0;3,0;column;1,0;True;False;True;1,20000004768;True;1,36899995804
IRN1996w;game;2017-04-28-15-36-43;11,0;31,0;100;3,0;1,0;0,0;2,0;column;1,0;True;True;True;1,70000004768;True;1,32899999619
IRN1996w;game;2017-04-28-15-36-43;11,0;32,0;100;0,0;3,0;2,0;1,0;row;0,0;True;False;True;0,700000047684;True;1,26099991798
IRN1996w;game;2017-04-28-15-36-43;11,0;33,0;100;1,0;2,0;3,0;0,0;column;1,0;True;True;False;1,89999985695;False;1,22300004959
IRN1996w;game;2017-04-28-15-36-43;11,0;34,0;100;0,0;3,0;1,0;2,0;column;1,0;True;False;True;1,40000009537;True;1,29200005531
IRN1996w;game;2017-04-28-15-36-43;11,0;35,0;100;2,0;1,0;3,0;0,0;row;0,0;True;True;False;1,23399996758;False;0,627999782562
IRN1996w;game;2017-04-28-15-36-43;11,0;36,0;100;1,0;0,0;2,0;3,0;column;0,0;True;True;False;1,43400001526;False;1,40300011635
IRN1996w;game;2017-04-28-15-36-43;11,0;37,0;100;3,0;1,0;0,0;2,0;row;1,0;False;True;True;1,03499984741;False;0,861000061035
IRN1996w;game;2017-04-28-15-36-43;11,0;38,0;100;3,0;1,0;2,0;0,0;row;1,0;True;False;True;0,931999921799;True;1,39600014687
IRN1996w;game;2017-04-28-15-36-43;11,0;39,0;100;1,0;3,0;2,0;0,0;column;0,0;True;True;False;1,43400001526;False;1,03199982643
IRN1996w;game;2017-04-28-15-36-43;11,0;40,0;100;1,0;2,0;3,0;0,0;column;0,0;True;True;True;1,16600012779;True;0,766999959946
IRN1996w;game;2017-04-28-15-36-43;11,0;41,0;100;2,0;3,0;1,0;0,0;column;0,0;False;False;True;1,56599998474;False;0,595999956131
IRN1996w;game;2017-04-28-15-36-43;11,0;42,0;100;3,0;0,0;1,0;2,0;row;1,0;False;False;True;1,09999990463;False;0,725999832153
IRN1996w;game;2017-04-28-15-36-43;11,0;43,0;100;1,0;0,0;2,0;3,0;row;0,0;False;False;False;1,132999897;True;0,526000022888
IRN1996w;game;2017-04-28-15-36-43;11,0;44,0;100;1,0;2,0;0,0;3,0;column;1,0;False;True;True;1,39999985695;False;0,536999940872
IRN1996w;game;2017-04-28-15-36-43;11,0;45,0;100;1,0;0,0;3,0;2,0;row;1,0;False;False;False;1,73199987411;True;1,32899999619
IRN1996w;game;2017-04-28-15-36-43;11,0;46,0;100;3,0;0,0;2,0;1,0;row;1,0;True;True;False;2,16700005531;False;0,668999910355
IRN1996w;game;2017-04-28-15-36-43;11,0;47,0;100;1,0;0,0;3,0;2,0;column;0,0;False;False;False;1,03399991989;True;1,45900011063
IRN1996w;game;2017-04-28-15-36-43;11,0;48,0;100;2,0;0,0;1,0;3,0;row;1,0;False;False;False;1,46700000763;True;0,893000125885
IRN1996w;game;2017-04-28-15-36-43;12,0;1,0;1000;2,0;0,0;3,0;1,0;column;0,0;False;True;False;1,26600003242;True;1,46199989319
IRN1996w;game;2017-04-28-15-36-43;12,0;2,0;1000;3,0;0,0;1,0;2,0;column;0,0;True;True;False;0,832999944687;False;1,13400006294
IRN1996w;game;2017-04-28-15-36-43;12,0;3,0;1000;2,0;0,0;3,0;1,0;row;1,0;False;True;False;1,96399998665;True;0,701999902725
IRN1996w;game;2017-04-28-15-36-43;12,0;4,0;1000;0,0;3,0;2,0;1,0;row;0,0;False;True;False;0,799999952316;True;1,29799985886
IRN1996w;game;2017-04-28-15-36-43;12,0;5,0;1000;0,0;2,0;1,0;3,0;column;1,0;True;True;True;1,43300008774;True;0,594000101089
IRN1996w;game;2017-04-28-15-36-43;12,0;6,0;1000;3,0;0,0;2,0;1,0;row;0,0;True;False;True;0,634000062943;True;1,16199994087
IRN1996w;game;2017-04-28-15-36-43;12,0;7,0;1000;3,0;1,0;0,0;2,0;row;0,0;False;True;False;1,5;True;1,49799990654
IRN1996w;game;2017-04-28-15-36-43;12,0;8,0;1000;1,0;2,0;0,0;3,0;row;0,0;True;False;True;0,799000024796;True;0,991999864578
IRN1996w;game;2017-04-28-15-36-43;12,0;9,0;1000;3,0;0,0;2,0;1,0;column;0,0;True;True;False;1,03300023079;False;1,43400001526
IRN1996w;game;2017-04-28-15-36-43;12,0;10,0;1000;3,0;1,0;2,0;0,0;row;1,0;False;True;False;0,834000110626;True;0,691999912262
IRN1996w;game;2017-04-28-15-36-43;12,0;11,0;1000;0,0;1,0;3,0;2,0;column;0,0;False;False;False;1,73300004005;True;0,930000066757
IRN1996w;game;2017-04-28-15-36-43;12,0;12,0;1000;2,0;3,0;0,0;1,0;row;1,0;False;True;True;1,5;False;0,55999994278
IRN1996w;game;2017-04-28-15-36-43;12,0;13,0;1000;3,0;0,0;1,0;2,0;row;0,0;True;True;False;1,16600012779;False;1,02699995041
IRN1996w;game;2017-04-28-15-36-43;12,0;14,0;1000;3,0;1,0;2,0;0,0;column;1,0;False;False;False;1,66599988937;True;1,40100002289
IRN1996w;game;2017-04-28-15-36-43;12,0;15,0;1000;3,0;0,0;2,0;1,0;row;1,0;True;False;True;1,19999980927;True;1,257999897
IRN1996w;game;2017-04-28-15-36-43;12,0;16,0;1000;1,0;0,0;3,0;2,0;row;1,0;False;True;False;0,829999923706;True;0,703000068665
IRN1996w;game;2017-04-28-15-36-43;12,0;17,0;1000;0,0;1,0;3,0;2,0;row;1,0;False;False;False;1,19999980927;True;0,53200006485
IRN1996w;game;2017-04-28-15-36-43;12,0;18,0;1000;3,0;2,0;1,0;0,0;column;1,0;False;False;False;1,06699991226;True;1,46600008011
IRN1996w;game;2017-04-28-15-36-43;12,0;19,0;1000;2,0;0,0;1,0;3,0;column;1,0;False;True;False;0,966000080109;True;0,832999944687
IRN1996w;game;2017-04-28-15-36-43;12,0;20,0;1000;3,0;2,0;1,0;0,0;column;1,0;True;False;True;1,0;True;0,566999912262
IRN1996w;game;2017-04-28-15-36-43;12,0;21,0;1000;2,0;0,0;1,0;3,0;column;1,0;True;False;True;0,998999834061;True;1,32799983025
IRN1996w;game;2017-04-28-15-36-43;12,0;22,0;1000;1,0;3,0;2,0;0,0;column;0,0;False;False;False;1,5;True;1,43899989128
IRN1996w;game;2017-04-28-15-36-43;12,0;23,0;1000;2,0;1,0;3,0;0,0;column;1,0;False;False;False;0,900000095367;True;1,37300014496
IRN1996w;game;2017-04-28-15-36-43;12,0;24,0;1000;3,0;0,0;2,0;1,0;row;1,0;False;True;False;0,900000095367;True;1,42100000381
IRN1996w;game;2017-04-28-15-36-43;12,0;25,0;1000;2,0;1,0;0,0;3,0;row;1,0;False;False;False;0,799999952316;True;1,09500002861
IRN1996w;game;2017-04-28-15-36-43;12,0;26,0;1000;1,0;2,0;3,0;0,0;column;1,0;True;False;False;0,834000110626;False;1,30100011826
IRN1996w;game;2017-04-28-15-36-43;12,0;27,0;1000;3,0;2,0;1,0;0,0;row;1,0;False;False;False;0,733999967575;True;1,16300010681
IRN1996w;game;2017-04-28-15-36-43;12,0;28,0;1000;1,0;0,0;3,0;2,0;row;0,0;False;True;False;1,43200016022;True;1,25999999046
IRN1996w;game;2017-04-28-15-36-43;12,0;29,0;1000;1,0;0,0;2,0;3,0;row;1,0;False;False;True;1,13300013542;False;1,06200003624
IRN1996w;game;2017-04-28-15-36-43;12,0;30,0;1000;0,0;2,0;3,0;1,0;column;0,0;False;False;False;1,0;True;0,760999917984
IRN1996w;game;2017-04-28-15-36-43;12,0;31,0;1000;0,0;1,0;3,0;2,0;column;0,0;True;False;False;1,367000103;False;0,592000007629
IRN1996w;game;2017-04-28-15-36-43;12,0;32,0;1000;3,0;1,0;0,0;2,0;column;1,0;False;True;False;1,46600008011;True;1,33500003815
IRN1996w;game;2017-04-28-15-36-43;12,0;33,0;1000;3,0;0,0;1,0;2,0;row;1,0;False;True;True;1,66599988937;False;0,758999824524
IRN1996w;game;2017-04-28-15-36-43;12,0;34,0;1000;3,0;0,0;1,0;2,0;row;0,0;False;True;False;1,16600012779;True;0,825999975204
IRN1996w;game;2017-04-28-15-36-43;12,0;35,0;1000;2,0;1,0;0,0;3,0;column;0,0;False;True;False;0,867000102997;True;0,532999992371
IRN1996w;game;2017-04-28-15-36-43;12,0;36,0;1000;0,0;3,0;1,0;2,0;column;0,0;True;False;True;0,900000095367;True;0,97000002861
IRN1996w;game;2017-04-28-15-36-43;12,0;37,0;1000;0,0;2,0;1,0;3,0;row;1,0;False;False;False;1,76800012589;True;1,19400000572
IRN1996w;game;2017-04-28-15-36-43;12,0;38,0;1000;1,0;2,0;3,0;0,0;row;1,0;False;True;False;1,10000014305;True;0,869999885559
IRN1996w;game;2017-04-28-15-36-43;12,0;39,0;1000;0,0;2,0;3,0;1,0;column;0,0;True;True;True;0,733999967575;True;1,43400001526
IRN1996w;game;2017-04-28-15-36-43;12,0;40,0;1000;3,0;1,0;0,0;2,0;column;0,0;False;False;False;1,2990000248;True;1,33299994469
IRN1996w;game;2017-04-28-15-36-43;12,0;41,0;1000;0,0;1,0;3,0;2,0;row;1,0;True;False;True;1,33300018311;True;1,50200009346
IRN1996w;game;2017-04-28-15-36-43;12,0;42,0;1000;3,0;1,0;0,0;2,0;row;0,0;True;False;False;1,132999897;False;0,697999954224
IRN1996w;game;2017-04-28-15-36-43;12,0;43,0;1000;0,0;3,0;1,0;2,0;row;0,0;True;True;True;0,999000072479;True;0,869999885559
IRN1996w;game;2017-04-28-15-36-43;12,0;44,0;1000;1,0;2,0;0,0;3,0;column;0,0;False;True;False;0,867000102997;True;0,898999929428
IRN1996w;game;2017-04-28-15-36-43;12,0;45,0;1000;0,0;1,0;3,0;2,0;row;0,0;False;False;False;1,80000019073;True;1,47000002861
IRN1996w;game;2017-04-28-15-36-43;12,0;46,0;1000;1,0;0,0;3,0;2,0;row;1,0;True;False;True;1,29999995232;True;1,09800004959
IRN1996w;game;2017-04-28-15-36-43;12,0;47,0;1000;0,0;1,0;2,0;3,0;column;0,0;True;False;False;1,13300013542;False;1,37300014496
IRN1996w;game;2017-04-28-15-36-43;12,0;48,0;1000;1,0;3,0;2,0;0,0;column;1,0;False;False;False;1,23400020599;True;1,16299986839
