Observer;Condition;SessionID;Block;Trial;COA;Color0;Color1;Color2;Color3;Target;Which;Match;FlipComplimentary;Response;RT;Correct;OnsetDelay
KTS1993w;experiment;2017-03-16-08-58-15;1,0;1,0;-100;2,0;0,0;1,0;3,0;column;0,0;False;True;False;4,04099988937;True;0,770999908447
KTS1993w;experiment;2017-03-16-08-58-15;1,0;2,0;-100;1,0;0,0;3,0;2,0;column;0,0;True;False;False;2,78400015831;False;0,835999965668
KTS1993w;experiment;2017-03-16-08-58-15;1,0;3,0;-100;0,0;3,0;1,0;2,0;row;0,0;False;True;False;2,65000009537;True;0,862999916077
KTS1993w;experiment;2017-03-16-08-58-15;1,0;4,0;-100;0,0;3,0;2,0;1,0;row;0,0;False;False;False;1,58300018311;True;0,892999887466
KTS1993w;experiment;2017-03-16-08-58-15;1,0;5,0;-100;3,0;2,0;0,0;1,0;row;0,0;False;False;False;2,31399989128;True;0,922000169754
KTS1993w;experiment;2017-03-16-08-58-15;1,0;6,0;-100;0,0;3,0;1,0;2,0;column;1,0;True;False;True;1,85000014305;True;1,46399998665
KTS1993w;experiment;2017-03-16-08-58-15;1,0;7,0;-100;1,0;2,0;3,0;0,0;row;0,0;False;True;False;4,98200011253;True;0,667999982834
KTS1993w;experiment;2017-03-16-08-58-15;1,0;8,0;-100;1,0;0,0;2,0;3,0;row;1,0;False;False;False;1,21600008011;True;1,36400008202
KTS1993w;experiment;2017-03-16-08-58-15;1,0;9,0;-100;3,0;0,0;1,0;2,0;row;1,0;True;False;True;1,41700005531;True;1,32899999619
KTS1993w;experiment;2017-03-16-08-58-15;1,0;10,0;-100;1,0;2,0;0,0;3,0;row;1,0;True;True;True;1,91599988937;True;0,932999849319
KTS1993w;experiment;2017-03-16-08-58-15;1,0;11,0;-100;3,0;2,0;1,0;0,0;column;0,0;True;True;False;1,25;False;0,968999862671
KTS1993w;experiment;2017-03-16-08-58-15;1,0;12,0;-100;3,0;2,0;0,0;1,0;column;0,0;True;False;False;1,71399998665;False;1,26399993896
KTS1993w;experiment;2017-03-16-08-58-15;1,0;13,0;-100;0,0;1,0;3,0;2,0;row;0,0;False;False;False;1,48199987411;True;1,17899990082
KTS1993w;experiment;2017-03-16-08-58-15;1,0;14,0;-100;0,0;1,0;3,0;2,0;column;1,0;True;False;False;1,24900007248;False;1,4279999733
KTS1993w;experiment;2017-03-16-08-58-15;1,0;15,0;-100;2,0;3,0;1,0;0,0;row;0,0;True;False;True;1,44899988174;True;1,19799995422
KTS1993w;experiment;2017-03-16-08-58-15;1,0;16,0;-100;0,0;3,0;1,0;2,0;column;0,0;True;False;True;1,16299986839;True;0,659999847412
KTS1993w;experiment;2017-03-16-08-58-15;1,0;17,0;-100;3,0;1,0;0,0;2,0;column;1,0;False;False;False;1,34800004959;True;0,832999944687
KTS1993w;experiment;2017-03-16-08-58-15;1,0;18,0;-100;2,0;0,0;3,0;1,0;row;0,0;True;False;True;0,884000062943;True;0,56299996376
KTS1993w;experiment;2017-03-16-08-58-15;1,0;19,0;-100;3,0;0,0;2,0;1,0;column;0,0;False;False;False;1,04999995232;True;0,766000032425
KTS1993w;experiment;2017-03-16-08-58-15;1,0;20,0;-100;3,0;2,0;0,0;1,0;column;1,0;True;True;True;0,78400015831;True;1,13100004196
KTS1993w;experiment;2017-03-16-08-58-15;1,0;21,0;-100;3,0;0,0;2,0;1,0;row;1,0;False;True;False;1,41700005531;True;0,537000179291
KTS1993w;experiment;2017-03-16-08-58-15;1,0;22,0;-100;2,0;3,0;0,0;1,0;row;1,0;False;True;False;1,24799990654;True;0,835999965668
KTS1993w;experiment;2017-03-16-08-58-15;1,0;23,0;-100;3,0;2,0;0,0;1,0;row;1,0;True;False;False;0,850000143051;False;0,533999919891
KTS1993w;experiment;2017-03-16-08-58-15;1,0;24,0;-100;0,0;1,0;2,0;3,0;row;1,0;True;False;True;1,88199996948;True;0,798000097275
KTS1993w;experiment;2017-03-16-08-58-15;1,0;25,0;-100;3,0;1,0;2,0;0,0;column;0,0;False;True;False;1,08400011063;True;0,631000041962
KTS1993w;experiment;2017-03-16-08-58-15;1,0;26,0;-100;1,0;3,0;0,0;2,0;row;1,0;True;False;False;0,982000112534;False;1,41499996185
KTS1993w;experiment;2017-03-16-08-58-15;1,0;27,0;-100;2,0;3,0;1,0;0,0;row;1,0;True;True;True;0,746999979019;True;0,669999837875
KTS1993w;experiment;2017-03-16-08-58-15;1,0;28,0;-100;3,0;1,0;0,0;2,0;row;0,0;False;False;False;1,21599984169;True;1,00300002098
KTS1993w;experiment;2017-03-16-08-58-15;1,0;29,0;-100;3,0;1,0;0,0;2,0;row;1,0;True;False;False;1,08200001717;False;1,32800006866
KTS1993w;experiment;2017-03-16-08-58-15;1,0;30,0;-100;3,0;1,0;2,0;0,0;row;1,0;False;True;True;1,15100002289;False;1,10400009155
KTS1993w;experiment;2017-03-16-08-58-15;1,0;31,0;-100;1,0;0,0;2,0;3,0;column;1,0;True;True;True;0,75;True;1,32699990273
KTS1993w;experiment;2017-03-16-08-58-15;1,0;32,0;-100;3,0;2,0;0,0;1,0;row;1,0;False;False;True;1,18300008774;False;1,05800008774
KTS1993w;experiment;2017-03-16-08-58-15;1,0;33,0;-100;3,0;1,0;2,0;0,0;row;0,0;False;False;True;1,51699995995;False;1,20300006866
KTS1993w;experiment;2017-03-16-08-58-15;1,0;34,0;-100;1,0;3,0;2,0;0,0;row;0,0;False;False;False;1,11599993706;True;1,03500008583
KTS1993w;experiment;2017-03-16-08-58-15;1,0;35,0;-100;0,0;2,0;3,0;1,0;row;1,0;True;True;True;2,08099985123;True;0,868999958038
KTS1993w;experiment;2017-03-16-08-58-15;1,0;36,0;-100;2,0;0,0;1,0;3,0;column;0,0;True;True;False;2,25;False;0,526999950409
KTS1993w;experiment;2017-03-16-08-58-15;1,0;37,0;-100;1,0;2,0;0,0;3,0;column;1,0;False;False;False;1,98399996758;True;1,06999993324
KTS1993w;experiment;2017-03-16-08-58-15;1,0;38,0;-100;1,0;0,0;2,0;3,0;column;1,0;False;False;True;1,382999897;False;0,536000013351
KTS1993w;experiment;2017-03-16-08-58-15;1,0;39,0;-100;2,0;0,0;1,0;3,0;column;1,0;False;True;False;0,78200006485;True;0,891999959946
KTS1993w;experiment;2017-03-16-08-58-15;1,0;40,0;-100;2,0;3,0;0,0;1,0;row;0,0;True;True;True;0,981999874115;True;1,46299982071
KTS1993w;experiment;2017-03-16-08-58-15;1,0;41,0;-100;3,0;0,0;1,0;2,0;row;0,0;False;False;False;1,01700019836;True;0,533999919891
KTS1993w;experiment;2017-03-16-08-58-15;1,0;42,0;-100;0,0;2,0;1,0;3,0;column;1,0;True;True;True;1,28199982643;True;0,763000011444
KTS1993w;experiment;2017-03-16-08-58-15;1,0;43,0;-100;1,0;3,0;2,0;0,0;column;1,0;False;False;True;1,01699995995;False;1,29400014877
KTS1993w;experiment;2017-03-16-08-58-15;1,0;44,0;-100;2,0;0,0;1,0;3,0;row;0,0;True;True;True;2,14999985695;True;0,639999866486
KTS1993w;experiment;2017-03-16-08-58-15;1,0;45,0;-100;0,0;1,0;3,0;2,0;column;1,0;False;False;True;1,01699995995;False;0,961999893188
KTS1993w;experiment;2017-03-16-08-58-15;1,0;46,0;-100;1,0;2,0;3,0;0,0;row;1,0;True;True;False;1,58099985123;False;0,667999982834
KTS1993w;experiment;2017-03-16-08-58-15;1,0;47,0;-100;2,0;3,0;0,0;1,0;column;0,0;True;True;False;1,48400020599;False;1,33299994469
KTS1993w;experiment;2017-03-16-08-58-15;1,0;48,0;-100;0,0;1,0;3,0;2,0;column;0,0;False;True;True;2,45000004768;False;1,27300000191
KTS1993w;experiment;2017-03-16-08-58-15;2,0;1,0;100;3,0;0,0;1,0;2,0;row;1,0;True;True;False;1,26699995995;False;1,06500005722
KTS1993w;experiment;2017-03-16-08-58-15;2,0;2,0;100;0,0;2,0;3,0;1,0;row;1,0;False;False;False;1,70000004768;True;1,492000103
KTS1993w;experiment;2017-03-16-08-58-15;2,0;3,0;100;2,0;1,0;0,0;3,0;row;0,0;False;False;False;1,23399996758;True;0,794000148773
KTS1993w;experiment;2017-03-16-08-58-15;2,0;4,0;100;0,0;3,0;1,0;2,0;column;0,0;False;True;False;1,06599998474;True;0,628000020981
KTS1993w;experiment;2017-03-16-08-58-15;2,0;5,0;100;3,0;1,0;2,0;0,0;column;1,0;False;True;True;1,26699995995;False;0,663000106812
KTS1993w;experiment;2017-03-16-08-58-15;2,0;6,0;100;0,0;1,0;3,0;2,0;column;0,0;True;False;True;1,06500005722;True;1,20200014114
KTS1993w;experiment;2017-03-16-08-58-15;2,0;7,0;100;3,0;0,0;1,0;2,0;column;1,0;False;True;False;0,934000015259;True;1,09299993515
KTS1993w;experiment;2017-03-16-08-58-15;2,0;8,0;100;3,0;0,0;1,0;2,0;row;0,0;False;False;False;1,16700005531;True;1,50199985504
KTS1993w;experiment;2017-03-16-08-58-15;2,0;9,0;100;1,0;2,0;3,0;0,0;row;1,0;True;True;False;0,999000072479;False;1,36299991608
KTS1993w;experiment;2017-03-16-08-58-15;2,0;10,0;100;3,0;2,0;0,0;1,0;row;0,0;True;True;True;0,733999967575;True;0,662999868393
KTS1993w;experiment;2017-03-16-08-58-15;2,0;11,0;100;0,0;2,0;1,0;3,0;row;0,0;False;True;False;1,10000014305;True;1,50099992752
KTS1993w;experiment;2017-03-16-08-58-15;2,0;12,0;100;3,0;0,0;2,0;1,0;row;0,0;False;True;False;1,29700016975;True;1,29699993134
KTS1993w;experiment;2017-03-16-08-58-15;2,0;13,0;100;3,0;2,0;0,0;1,0;row;0,0;False;False;False;0,833000183105;True;0,963999986649
KTS1993w;experiment;2017-03-16-08-58-15;2,0;14,0;100;2,0;1,0;0,0;3,0;row;0,0;True;False;True;1,03299999237;True;1,22599983215
KTS1993w;experiment;2017-03-16-08-58-15;2,0;15,0;100;2,0;0,0;3,0;1,0;row;0,0;False;False;True;0,865999937057;False;0,927000045776
KTS1993w;experiment;2017-03-16-08-58-15;2,0;16,0;100;2,0;0,0;3,0;1,0;column;1,0;True;False;False;0,766000032425;False;0,962999820709
KTS1993w;experiment;2017-03-16-08-58-15;2,0;17,0;100;3,0;0,0;1,0;2,0;row;1,0;False;True;False;1,29999995232;True;1,16799998283
KTS1993w;experiment;2017-03-16-08-58-15;2,0;18,0;100;2,0;3,0;0,0;1,0;column;0,0;False;False;False;0,866000175476;True;1,26900005341
KTS1993w;experiment;2017-03-16-08-58-15;2,0;19,0;100;3,0;1,0;2,0;0,0;column;0,0;False;False;False;1,03299999237;True;1,49699997902
KTS1993w;experiment;2017-03-16-08-58-15;2,0;20,0;100;3,0;1,0;0,0;2,0;row;1,0;True;True;True;0,700000047684;True;1,26900005341
KTS1993w;experiment;2017-03-16-08-58-15;2,0;21,0;100;0,0;3,0;2,0;1,0;row;0,0;True;True;True;0,734000205994;True;0,759999990463
KTS1993w;experiment;2017-03-16-08-58-15;2,0;22,0;100;0,0;1,0;3,0;2,0;row;0,0;True;False;True;1,46799993515;True;1,10100007057
KTS1993w;experiment;2017-03-16-08-58-15;2,0;23,0;100;1,0;0,0;3,0;2,0;row;0,0;False;False;False;1,20000004768;True;1,09999990463
KTS1993w;experiment;2017-03-16-08-58-15;2,0;24,0;100;0,0;3,0;2,0;1,0;column;0,0;True;True;False;1,03400015831;False;0,736999988556
KTS1993w;experiment;2017-03-16-08-58-15;2,0;25,0;100;3,0;1,0;2,0;0,0;row;1,0;True;False;False;1,03299999237;False;0,736999988556
KTS1993w;experiment;2017-03-16-08-58-15;2,0;26,0;100;0,0;2,0;3,0;1,0;row;0,0;False;False;False;0,799999952316;True;1,36800003052
KTS1993w;experiment;2017-03-16-08-58-15;2,0;27,0;100;3,0;2,0;0,0;1,0;column;1,0;True;False;False;0,934000015259;False;0,894000053406
KTS1993w;experiment;2017-03-16-08-58-15;2,0;28,0;100;3,0;0,0;2,0;1,0;row;1,0;True;False;False;1,0;False;0,996999979019
KTS1993w;experiment;2017-03-16-08-58-15;2,0;29,0;100;0,0;2,0;1,0;3,0;row;1,0;True;True;False;1,0;False;0,694999933243
KTS1993w;experiment;2017-03-16-08-58-15;2,0;30,0;100;0,0;2,0;1,0;3,0;column;0,0;False;True;False;1,30099987984;True;1,33899998665
KTS1993w;experiment;2017-03-16-08-58-15;2,0;31,0;100;2,0;1,0;3,0;0,0;row;0,0;True;False;True;0,699999809265;True;1,23400020599
KTS1993w;experiment;2017-03-16-08-58-15;2,0;32,0;100;0,0;3,0;2,0;1,0;column;1,0;True;True;True;0,866999864578;True;1,10500001907
KTS1993w;experiment;2017-03-16-08-58-15;2,0;33,0;100;1,0;2,0;0,0;3,0;row;1,0;True;False;False;1,09999990463;False;1,06299996376
KTS1993w;experiment;2017-03-16-08-58-15;2,0;34,0;100;1,0;3,0;2,0;0,0;column;0,0;False;False;False;0,866999864578;True;0,705999851227
KTS1993w;experiment;2017-03-16-08-58-15;2,0;35,0;100;1,0;2,0;3,0;0,0;column;0,0;False;True;True;1,19999980927;False;0,796999931335
KTS1993w;experiment;2017-03-16-08-58-15;2,0;36,0;100;0,0;3,0;1,0;2,0;row;1,0;True;True;True;0,834000110626;True;0,53200006485
KTS1993w;experiment;2017-03-16-08-58-15;2,0;37,0;100;3,0;1,0;0,0;2,0;column;1,0;True;True;False;1,33400011063;False;0,571000099182
KTS1993w;experiment;2017-03-16-08-58-15;2,0;38,0;100;3,0;2,0;0,0;1,0;column;0,0;True;False;True;0,865999937057;True;0,805999994278
KTS1993w;experiment;2017-03-16-08-58-15;2,0;39,0;100;1,0;2,0;0,0;3,0;column;1,0;True;False;True;0,934000015259;True;1,30399990082
KTS1993w;experiment;2017-03-16-08-58-15;2,0;40,0;100;0,0;1,0;2,0;3,0;row;0,0;False;True;True;0,800000190735;False;0,766999959946
KTS1993w;experiment;2017-03-16-08-58-15;2,0;41,0;100;3,0;1,0;0,0;2,0;row;1,0;False;True;False;0,832999944687;True;1,2990000248
KTS1993w;experiment;2017-03-16-08-58-15;2,0;42,0;100;2,0;1,0;3,0;0,0;column;0,0;False;False;False;1,16600012779;True;1,19499993324
KTS1993w;experiment;2017-03-16-08-58-15;2,0;43,0;100;1,0;0,0;2,0;3,0;column;0,0;True;False;True;1,03299999237;True;1,23500013351
KTS1993w;experiment;2017-03-16-08-58-15;2,0;44,0;100;0,0;1,0;3,0;2,0;column;1,0;False;True;True;0,966000080109;False;1,43600010872
KTS1993w;experiment;2017-03-16-08-58-15;2,0;45,0;100;1,0;3,0;0,0;2,0;column;1,0;True;True;True;0,700000047684;True;1,07099986076
KTS1993w;experiment;2017-03-16-08-58-15;2,0;46,0;100;2,0;0,0;1,0;3,0;column;1,0;True;False;False;1,33300018311;False;1,30599999428
KTS1993w;experiment;2017-03-16-08-58-15;2,0;47,0;100;1,0;2,0;0,0;3,0;row;1,0;False;False;True;0,700000047684;False;0,595999956131
KTS1993w;experiment;2017-03-16-08-58-15;2,0;48,0;100;1,0;2,0;3,0;0,0;column;0,0;True;True;True;1,03399991989;True;0,628999948502
KTS1993w;experiment;2017-03-16-08-58-15;3,0;1,0;1000;2,0;3,0;0,0;1,0;row;0,0;False;False;True;1,03400015831;False;1,23399996758
KTS1993w;experiment;2017-03-16-08-58-15;3,0;2,0;1000;2,0;1,0;3,0;0,0;column;0,0;True;False;False;1,03400015831;False;1,36600017548
KTS1993w;experiment;2017-03-16-08-58-15;3,0;3,0;1000;2,0;3,0;0,0;1,0;column;0,0;False;False;False;1,0;True;1,46899986267
KTS1993w;experiment;2017-03-16-08-58-15;3,0;4,0;1000;3,0;2,0;1,0;0,0;row;0,0;False;False;False;1,2990000248;True;0,837000131607
KTS1993w;experiment;2017-03-16-08-58-15;3,0;5,0;1000;1,0;0,0;2,0;3,0;column;1,0;False;True;True;2,23300004005;False;0,766999959946
KTS1993w;experiment;2017-03-16-08-58-15;3,0;6,0;1000;1,0;0,0;2,0;3,0;row;1,0;False;False;False;0,999000072479;True;0,565999984741
KTS1993w;experiment;2017-03-16-08-58-15;3,0;7,0;1000;0,0;3,0;2,0;1,0;row;1,0;False;True;True;1,33299994469;False;1,30100011826
KTS1993w;experiment;2017-03-16-08-58-15;3,0;8,0;1000;0,0;3,0;1,0;2,0;row;1,0;True;True;False;1,03299999237;False;1,40599989891
KTS1993w;experiment;2017-03-16-08-58-15;3,0;9,0;1000;2,0;1,0;3,0;0,0;row;1,0;True;False;False;0,932999849319;False;1,50099992752
KTS1993w;experiment;2017-03-16-08-58-15;3,0;10,0;1000;1,0;2,0;3,0;0,0;row;0,0;False;True;True;0,633000135422;False;1,03299999237
KTS1993w;experiment;2017-03-16-08-58-15;3,0;11,0;1000;3,0;1,0;2,0;0,0;row;0,0;True;True;True;1,19999980927;True;0,691999912262
KTS1993w;experiment;2017-03-16-08-58-15;3,0;12,0;1000;0,0;2,0;1,0;3,0;column;0,0;False;True;True;1,83299994469;False;1,10400009155
KTS1993w;experiment;2017-03-16-08-58-15;3,0;13,0;1000;3,0;2,0;0,0;1,0;row;0,0;False;False;True;0,599999904633;False;1,4279999733
KTS1993w;experiment;2017-03-16-08-58-15;3,0;14,0;1000;0,0;2,0;3,0;1,0;row;1,0;False;False;False;3,03399991989;True;0,635999917984
KTS1993w;experiment;2017-03-16-08-58-15;3,0;15,0;1000;1,0;3,0;2,0;0,0;row;0,0;False;False;True;2,83299994469;False;1,00200009346
KTS1993w;experiment;2017-03-16-08-58-15;3,0;16,0;1000;2,0;0,0;3,0;1,0;row;1,0;True;False;False;2,20000004768;False;0,866000175476
KTS1993w;experiment;2017-03-16-08-58-15;3,0;17,0;1000;2,0;0,0;3,0;1,0;row;0,0;False;False;False;3,70000004768;True;0,799000024796
KTS1993w;experiment;2017-03-16-08-58-15;3,0;18,0;1000;0,0;1,0;2,0;3,0;row;0,0;True;False;True;1,40000009537;True;1,367000103
KTS1993w;experiment;2017-03-16-08-58-15;3,0;19,0;1000;1,0;2,0;0,0;3,0;column;0,0;False;False;True;3,09999990463;False;0,534999847412
KTS1993w;experiment;2017-03-16-08-58-15;3,0;20,0;1000;2,0;1,0;3,0;0,0;row;0,0;True;True;True;2,03400015831;True;1,43299984932
KTS1993w;experiment;2017-03-16-08-58-15;3,0;21,0;1000;0,0;3,0;1,0;2,0;column;0,0;True;False;True;2,33299994469;True;0,736999988556
KTS1993w;experiment;2017-03-16-08-58-15;3,0;22,0;1000;2,0;1,0;3,0;0,0;column;0,0;False;False;False;1,96600008011;True;0,662000179291
KTS1993w;experiment;2017-03-16-08-58-15;3,0;23,0;1000;1,0;3,0;0,0;2,0;row;0,0;False;True;False;2,96700000763;True;0,599999904633
KTS1993w;experiment;2017-03-16-08-58-15;3,0;24,0;1000;0,0;1,0;3,0;2,0;column;1,0;False;False;False;2,29800009727;True;1,50200009346
KTS1993w;experiment;2017-03-16-08-58-15;3,0;25,0;1000;3,0;2,0;1,0;0,0;column;0,0;False;False;False;2,132999897;True;1,26200008392
KTS1993w;experiment;2017-03-16-08-58-15;3,0;26,0;1000;1,0;0,0;2,0;3,0;column;1,0;True;False;False;2,26600003242;False;0,703999996185
KTS1993w;experiment;2017-03-16-08-58-15;3,0;27,0;1000;1,0;3,0;0,0;2,0;column;1,0;False;True;False;2,13300013542;True;0,727999925613
KTS1993w;experiment;2017-03-16-08-58-15;3,0;28,0;1000;1,0;2,0;3,0;0,0;column;0,0;False;True;False;1,46700000763;True;1,36599993706
KTS1993w;experiment;2017-03-16-08-58-15;3,0;29,0;1000;1,0;0,0;2,0;3,0;column;0,0;False;True;False;1,43300008774;True;1,43300008774
KTS1993w;experiment;2017-03-16-08-58-15;3,0;30,0;1000;1,0;2,0;0,0;3,0;column;1,0;False;False;True;3,36500000954;False;1,12700009346
KTS1993w;experiment;2017-03-16-08-58-15;3,0;31,0;1000;3,0;0,0;2,0;1,0;column;1,0;False;True;False;2,66700005531;True;1,3259999752
KTS1993w;experiment;2017-03-16-08-58-15;3,0;32,0;1000;3,0;2,0;1,0;0,0;row;1,0;True;True;True;5,16600012779;True;1,00300002098
KTS1993w;experiment;2017-03-16-08-58-15;3,0;33,0;1000;2,0;0,0;1,0;3,0;column;0,0;False;True;False;2,9319999218;True;0,626999855042
KTS1993w;experiment;2017-03-16-08-58-15;3,0;34,0;1000;3,0;0,0;1,0;2,0;column;1,0;True;False;True;3,76700019836;True;1,16000008583
KTS1993w;experiment;2017-03-16-08-58-15;3,0;35,0;1000;0,0;2,0;3,0;1,0;row;0,0;True;True;True;1,90000009537;True;1,23299980164
KTS1993w;experiment;2017-03-16-08-58-15;3,0;36,0;1000;2,0;1,0;0,0;3,0;row;0,0;True;True;True;0,833999872208;True;1,09300017357
KTS1993w;experiment;2017-03-16-08-58-15;3,0;37,0;1000;3,0;1,0;0,0;2,0;row;0,0;False;True;False;1,73300004005;True;1,09700012207
KTS1993w;experiment;2017-03-16-08-58-15;3,0;38,0;1000;3,0;1,0;2,0;0,0;row;1,0;True;True;False;1,86400008202;False;1,36699986458
KTS1993w;experiment;2017-03-16-08-58-15;3,0;39,0;1000;3,0;0,0;1,0;2,0;column;1,0;False;False;True;2,46600008011;False;1,45800018311
KTS1993w;experiment;2017-03-16-08-58-15;3,0;40,0;1000;2,0;3,0;1,0;0,0;column;1,0;True;False;True;2,29999995232;True;1,38700008392
KTS1993w;experiment;2017-03-16-08-58-15;3,0;41,0;1000;3,0;2,0;0,0;1,0;column;1,0;False;True;False;1,46700000763;True;0,727999925613
KTS1993w;experiment;2017-03-16-08-58-15;3,0;42,0;1000;1,0;2,0;3,0;0,0;row;0,0;True;True;True;1,46799993515;True;0,789999961853
KTS1993w;experiment;2017-03-16-08-58-15;3,0;43,0;1000;3,0;2,0;1,0;0,0;row;1,0;False;False;False;1,26699995995;True;1,47199988365
KTS1993w;experiment;2017-03-16-08-58-15;3,0;44,0;1000;0,0;2,0;1,0;3,0;column;0,0;True;False;True;2,13300013542;True;1,20500016212
KTS1993w;experiment;2017-03-16-08-58-15;3,0;45,0;1000;1,0;3,0;2,0;0,0;column;1,0;True;False;False;1,03399991989;False;1,23599982262
KTS1993w;experiment;2017-03-16-08-58-15;3,0;46,0;1000;0,0;1,0;2,0;3,0;column;1,0;True;False;True;1,46500015259;True;0,601999998093
KTS1993w;experiment;2017-03-16-08-58-15;3,0;47,0;1000;3,0;0,0;2,0;1,0;column;0,0;True;True;False;1,0;False;0,634000062943
KTS1993w;experiment;2017-03-16-08-58-15;3,0;48,0;1000;2,0;3,0;1,0;0,0;row;1,0;False;True;False;3,26600003242;True;0,825999975204
KTS1993w;experiment;2017-03-16-08-58-15;4,0;1,0;100;0,0;1,0;3,0;2,0;column;1,0;True;True;False;1,10100007057;False;0,864000082016
KTS1993w;experiment;2017-03-16-08-58-15;4,0;2,0;100;2,0;1,0;3,0;0,0;column;1,0;True;True;False;2,33299994469;False;1,10300016403
KTS1993w;experiment;2017-03-16-08-58-15;4,0;3,0;100;0,0;2,0;3,0;1,0;row;0,0;True;False;True;0,932999849319;True;1,43799996376
KTS1993w;experiment;2017-03-16-08-58-15;4,0;4,0;100;0,0;1,0;3,0;2,0;column;0,0;False;True;False;1,43300008774;True;1,32800006866
KTS1993w;experiment;2017-03-16-08-58-15;4,0;5,0;100;0,0;2,0;3,0;1,0;row;1,0;True;False;False;2,06799983978;False;1,26600003242
KTS1993w;experiment;2017-03-16-08-58-15;4,0;6,0;100;3,0;2,0;1,0;0,0;column;1,0;True;False;True;2,96700000763;True;0,658999919891
KTS1993w;experiment;2017-03-16-08-58-15;4,0;7,0;100;1,0;0,0;2,0;3,0;row;1,0;True;True;True;4,90000009537;True;1,33399987221
KTS1993w;experiment;2017-03-16-08-58-15;4,0;8,0;100;1,0;2,0;0,0;3,0;row;0,0;True;True;True;2,06599998474;True;1,06799983978
KTS1993w;experiment;2017-03-16-08-58-15;4,0;9,0;100;0,0;2,0;1,0;3,0;column;1,0;True;True;True;2,53200006485;True;1,17000007629
KTS1993w;experiment;2017-03-16-08-58-15;4,0;10,0;100;2,0;1,0;0,0;3,0;row;1,0;True;False;False;2,13399982452;False;0,897000074387
KTS1993w;experiment;2017-03-16-08-58-15;4,0;11,0;100;3,0;1,0;2,0;0,0;row;0,0;True;False;True;1,83300018311;True;0,769999980927
KTS1993w;experiment;2017-03-16-08-58-15;4,0;12,0;100;2,0;3,0;1,0;0,0;column;0,0;False;True;True;0,967000007629;False;0,661999940872
KTS1993w;experiment;2017-03-16-08-58-15;4,0;13,0;100;0,0;3,0;1,0;2,0;row;0,0;False;False;False;0,832999944687;True;1,36500000954
KTS1993w;experiment;2017-03-16-08-58-15;4,0;14,0;100;1,0;0,0;2,0;3,0;column;1,0;False;False;False;1,46699976921;True;0,901999950409
KTS1993w;experiment;2017-03-16-08-58-15;4,0;15,0;100;3,0;2,0;0,0;1,0;row;1,0;True;False;True;1,19999980927;True;0,536999940872
KTS1993w;experiment;2017-03-16-08-58-15;4,0;16,0;100;2,0;0,0;3,0;1,0;row;1,0;False;True;False;1,26699995995;True;1,23200011253
KTS1993w;experiment;2017-03-16-08-58-15;4,0;17,0;100;0,0;2,0;1,0;3,0;column;0,0;True;True;True;1,53499984741;True;1,08899998665
KTS1993w;experiment;2017-03-16-08-58-15;4,0;18,0;100;2,0;1,0;3,0;0,0;row;1,0;True;True;False;1,5;False;0,569000005722
KTS1993w;experiment;2017-03-16-08-58-15;4,0;19,0;100;2,0;3,0;0,0;1,0;row;1,0;False;False;False;1,93200016022;True;0,594999790192
KTS1993w;experiment;2017-03-16-08-58-15;4,0;20,0;100;3,0;2,0;1,0;0,0;row;0,0;False;True;True;2,03400015831;False;1,0649998188
KTS1993w;experiment;2017-03-16-08-58-15;4,0;21,0;100;1,0;0,0;3,0;2,0;column;1,0;True;True;True;2,36699986458;True;0,796999931335
KTS1993w;experiment;2017-03-16-08-58-15;4,0;22,0;100;1,0;2,0;0,0;3,0;row;0,0;False;True;True;4,33400011063;False;1,42700004578
KTS1993w;experiment;2017-03-16-08-58-15;4,0;23,0;100;2,0;1,0;0,0;3,0;row;1,0;False;False;False;3,0;True;0,730999946594
KTS1993w;experiment;2017-03-16-08-58-15;4,0;24,0;100;0,0;3,0;2,0;1,0;row;1,0;False;False;False;1,46599984169;True;0,637000083923
KTS1993w;experiment;2017-03-16-08-58-15;4,0;25,0;100;3,0;0,0;1,0;2,0;column;0,0;True;False;True;1,76699995995;True;0,635000228882
KTS1993w;experiment;2017-03-16-08-58-15;4,0;26,0;100;3,0;2,0;1,0;0,0;column;0,0;False;True;False;1,60000014305;True;0,627999782562
KTS1993w;experiment;2017-03-16-08-58-15;4,0;27,0;100;1,0;3,0;2,0;0,0;row;0,0;False;False;True;1,36599993706;False;1,12900018692
KTS1993w;experiment;2017-03-16-08-58-15;4,0;28,0;100;2,0;3,0;0,0;1,0;column;1,0;True;False;True;2,49900007248;True;1,2990000248
KTS1993w;experiment;2017-03-16-08-58-15;4,0;29,0;100;0,0;3,0;2,0;1,0;row;0,0;False;False;False;1,59999990463;True;1,1930000782
KTS1993w;experiment;2017-03-16-08-58-15;4,0;30,0;100;2,0;0,0;1,0;3,0;column;0,0;True;True;True;1,0;True;0,526000022888
KTS1993w;experiment;2017-03-16-08-58-15;4,0;31,0;100;2,0;1,0;0,0;3,0;column;1,0;True;True;True;1,5;True;0,766000032425
KTS1993w;experiment;2017-03-16-08-58-15;4,0;32,0;100;2,0;3,0;1,0;0,0;column;1,0;True;False;False;1,29999995232;False;1,02900004387
KTS1993w;experiment;2017-03-16-08-58-15;4,0;33,0;100;2,0;0,0;1,0;3,0;row;0,0;False;True;True;0,934000015259;False;1,47200012207
KTS1993w;experiment;2017-03-16-08-58-15;4,0;34,0;100;3,0;1,0;2,0;0,0;column;1,0;True;False;True;1,39999985695;True;1,132999897
KTS1993w;experiment;2017-03-16-08-58-15;4,0;35,0;100;0,0;3,0;1,0;2,0;column;1,0;False;False;True;1,53200006485;False;1,23000001907
KTS1993w;experiment;2017-03-16-08-58-15;4,0;36,0;100;2,0;0,0;1,0;3,0;row;1,0;True;False;True;2,23399996758;True;0,924000024796
KTS1993w;experiment;2017-03-16-08-58-15;4,0;37,0;100;1,0;3,0;0,0;2,0;column;1,0;False;True;True;1,69999980927;False;1,36299991608
KTS1993w;experiment;2017-03-16-08-58-15;4,0;38,0;100;0,0;2,0;3,0;1,0;column;1,0;True;True;True;2,60000014305;True;1,43400001526
KTS1993w;experiment;2017-03-16-08-58-15;4,0;39,0;100;2,0;3,0;1,0;0,0;row;1,0;False;True;False;2,06599998474;True;0,604000091553
KTS1993w;experiment;2017-03-16-08-58-15;4,0;40,0;100;1,0;0,0;3,0;2,0;row;1,0;False;False;True;1,46700000763;False;0,728999853134
KTS1993w;experiment;2017-03-16-08-58-15;4,0;41,0;100;1,0;0,0;2,0;3,0;column;1,0;True;True;True;0,832000017166;True;0,536999940872
KTS1993w;experiment;2017-03-16-08-58-15;4,0;42,0;100;0,0;1,0;2,0;3,0;column;0,0;True;True;False;1,632999897;False;1,33599996567
KTS1993w;experiment;2017-03-16-08-58-15;4,0;43,0;100;1,0;3,0;2,0;0,0;column;0,0;True;True;True;2,33299994469;True;0,802999973297
KTS1993w;experiment;2017-03-16-08-58-15;4,0;44,0;100;3,0;0,0;2,0;1,0;column;0,0;False;True;False;3,63199996948;True;0,628999948502
KTS1993w;experiment;2017-03-16-08-58-15;4,0;45,0;100;3,0;2,0;0,0;1,0;row;1,0;False;False;True;1,13300013542;False;0,667000055313
KTS1993w;experiment;2017-03-16-08-58-15;4,0;46,0;100;0,0;1,0;3,0;2,0;row;0,0;False;False;False;2,06599998474;True;1,30599999428
KTS1993w;experiment;2017-03-16-08-58-15;4,0;47,0;100;1,0;3,0;0,0;2,0;row;1,0;False;False;False;1,29999995232;True;1,03399991989
KTS1993w;experiment;2017-03-16-08-58-15;4,0;48,0;100;2,0;0,0;1,0;3,0;row;0,0;True;False;True;1,96700000763;True;1,0640001297
KTS1993w;experiment;2017-03-16-08-58-15;5,0;1,0;1000;0,0;3,0;2,0;1,0;row;0,0;False;True;False;0,667999982834;True;1,06500005722
KTS1993w;experiment;2017-03-16-08-58-15;5,0;2,0;1000;0,0;2,0;3,0;1,0;row;0,0;False;True;False;1,56699991226;True;1,46799993515
KTS1993w;experiment;2017-03-16-08-58-15;5,0;3,0;1000;1,0;2,0;0,0;3,0;row;0,0;True;False;True;2,06599998474;True;0,971999883652
KTS1993w;experiment;2017-03-16-08-58-15;5,0;4,0;1000;1,0;0,0;2,0;3,0;row;0,0;False;True;False;2,63499999046;True;1,50199985504
KTS1993w;experiment;2017-03-16-08-58-15;5,0;5,0;1000;1,0;2,0;0,0;3,0;column;1,0;True;False;False;1,79999995232;False;1,20000004768
KTS1993w;experiment;2017-03-16-08-58-15;5,0;6,0;1000;0,0;2,0;3,0;1,0;column;0,0;False;True;True;2,13300013542;False;1,16199994087
KTS1993w;experiment;2017-03-16-08-58-15;5,0;7,0;1000;3,0;1,0;0,0;2,0;column;1,0;True;True;False;0,901000022888;False;1,50600004196
KTS1993w;experiment;2017-03-16-08-58-15;5,0;8,0;1000;0,0;3,0;1,0;2,0;column;1,0;False;True;False;2,86600017548;True;1,07299995422
KTS1993w;experiment;2017-03-16-08-58-15;5,0;9,0;1000;2,0;0,0;3,0;1,0;column;0,0;True;True;True;1,46499991417;True;0,694999933243
KTS1993w;experiment;2017-03-16-08-58-15;5,0;10,0;1000;2,0;3,0;0,0;1,0;row;1,0;False;True;False;1,43400001526;True;0,960000038147
KTS1993w;experiment;2017-03-16-08-58-15;5,0;11,0;1000;3,0;1,0;0,0;2,0;row;1,0;True;True;False;1,26699995995;False;1,37000012398
KTS1993w;experiment;2017-03-16-08-58-15;5,0;12,0;1000;1,0;0,0;2,0;3,0;row;0,0;True;False;False;1,16600012779;False;1,03900003433
KTS1993w;experiment;2017-03-16-08-58-15;5,0;13,0;1000;3,0;1,0;0,0;2,0;column;0,0;False;True;True;0,866000175476;False;1,0720000267
KTS1993w;experiment;2017-03-16-08-58-15;5,0;14,0;1000;3,0;1,0;0,0;2,0;row;0,0;True;False;False;2,63400006294;False;0,936000108719
KTS1993w;experiment;2017-03-16-08-58-15;5,0;15,0;1000;3,0;2,0;0,0;1,0;row;1,0;True;True;False;0,899999856949;False;1,00099992752
KTS1993w;experiment;2017-03-16-08-58-15;5,0;16,0;1000;2,0;1,0;3,0;0,0;row;0,0;False;True;False;2,20000004768;True;1,23200011253
KTS1993w;experiment;2017-03-16-08-58-15;5,0;17,0;1000;3,0;0,0;2,0;1,0;row;0,0;False;True;False;2,23399996758;True;1,46700000763
KTS1993w;experiment;2017-03-16-08-58-15;5,0;18,0;1000;2,0;1,0;0,0;3,0;row;1,0;True;False;False;2,86699986458;False;1,26900005341
KTS1993w;experiment;2017-03-16-08-58-15;5,0;19,0;1000;0,0;3,0;1,0;2,0;column;0,0;False;False;False;1,03299999237;True;1,13199996948
KTS1993w;experiment;2017-03-16-08-58-15;5,0;20,0;1000;0,0;3,0;1,0;2,0;column;1,0;True;True;True;1,79999995232;True;1,22899985313
KTS1993w;experiment;2017-03-16-08-58-15;5,0;21,0;1000;0,0;2,0;3,0;1,0;column;1,0;True;True;True;2,30000019073;True;0,52999997139
KTS1993w;experiment;2017-03-16-08-58-15;5,0;22,0;1000;3,0;2,0;0,0;1,0;column;0,0;False;True;True;1,33300018311;False;1,26799988747
KTS1993w;experiment;2017-03-16-08-58-15;5,0;23,0;1000;0,0;1,0;3,0;2,0;column;0,0;False;False;False;1,86599993706;True;1,10199999809
KTS1993w;experiment;2017-03-16-08-58-15;5,0;24,0;1000;0,0;1,0;3,0;2,0;column;1,0;True;False;False;3,79999995232;False;1,36699986458
KTS1993w;experiment;2017-03-16-08-58-15;5,0;25,0;1000;2,0;0,0;1,0;3,0;row;1,0;False;False;False;1,09999990463;True;0,90499997139
KTS1993w;experiment;2017-03-16-08-58-15;5,0;26,0;1000;0,0;3,0;2,0;1,0;column;1,0;False;False;False;2,76600003242;True;1,32899999619
KTS1993w;experiment;2017-03-16-08-58-15;5,0;27,0;1000;1,0;2,0;0,0;3,0;row;1,0;True;True;False;1,76699995995;False;0,994000196457
KTS1993w;experiment;2017-03-16-08-58-15;5,0;28,0;1000;3,0;0,0;2,0;1,0;column;1,0;True;True;True;1,63399982452;True;1,3599998951
KTS1993w;experiment;2017-03-16-08-58-15;5,0;29,0;1000;3,0;0,0;1,0;2,0;row;1,0;True;False;True;2,09999990463;True;1,47199988365
KTS1993w;experiment;2017-03-16-08-58-15;5,0;30,0;1000;0,0;3,0;2,0;1,0;column;0,0;True;False;True;2,83299994469;True;0,605000019073
KTS1993w;experiment;2017-03-16-08-58-15;5,0;31,0;1000;3,0;1,0;0,0;2,0;column;1,0;False;True;False;2,89999985695;True;0,588999986649
KTS1993w;experiment;2017-03-16-08-58-15;5,0;32,0;1000;0,0;3,0;1,0;2,0;row;0,0;False;True;False;1,16400003433;True;0,669999837875
KTS1993w;experiment;2017-03-16-08-58-15;5,0;33,0;1000;3,0;1,0;2,0;0,0;row;1,0;False;False;False;2,56700015068;True;1,29500007629
KTS1993w;experiment;2017-03-16-08-58-15;5,0;34,0;1000;3,0;1,0;2,0;0,0;column;0,0;False;False;True;2,06700015068;False;0,895999908447
KTS1993w;experiment;2017-03-16-08-58-15;5,0;35,0;1000;3,0;0,0;1,0;2,0;row;0,0;True;True;True;1,59999990463;True;1,5
KTS1993w;experiment;2017-03-16-08-58-15;5,0;36,0;1000;3,0;0,0;2,0;1,0;row;1,0;False;True;False;2,33299994469;True;1,23200011253
KTS1993w;experiment;2017-03-16-08-58-15;5,0;37,0;1000;2,0;1,0;0,0;3,0;column;0,0;True;False;False;2,06699991226;False;0,870000123978
KTS1993w;experiment;2017-03-16-08-58-15;5,0;38,0;1000;0,0;3,0;2,0;1,0;row;1,0;True;True;False;3,56500005722;False;1,35599994659
KTS1993w;experiment;2017-03-16-08-58-15;5,0;39,0;1000;3,0;2,0;0,0;1,0;column;1,0;True;True;True;1,29899978638;True;1,30099987984
KTS1993w;experiment;2017-03-16-08-58-15;5,0;40,0;1000;3,0;2,0;1,0;0,0;row;0,0;True;False;False;0,901000022888;False;0,769999980927
KTS1993w;experiment;2017-03-16-08-58-15;5,0;41,0;1000;1,0;3,0;0,0;2,0;column;0,0;True;True;False;1,13400006294;False;0,869999885559
KTS1993w;experiment;2017-03-16-08-58-15;5,0;42,0;1000;1,0;2,0;3,0;0,0;column;1,0;False;True;False;1,09999990463;True;0,671000003815
KTS1993w;experiment;2017-03-16-08-58-15;5,0;43,0;1000;2,0;0,0;3,0;1,0;column;1,0;True;False;True;2,33299994469;True;0,537999868393
KTS1993w;experiment;2017-03-16-08-58-15;5,0;44,0;1000;3,0;2,0;0,0;1,0;row;0,0;True;False;False;1,70000004768;False;1,49500012398
KTS1993w;experiment;2017-03-16-08-58-15;5,0;45,0;1000;1,0;3,0;2,0;0,0;column;0,0;True;False;True;1,26600003242;True;0,697000026703
KTS1993w;experiment;2017-03-16-08-58-15;5,0;46,0;1000;1,0;3,0;2,0;0,0;row;1,0;False;True;False;0,667000055313;True;1,06999993324
KTS1993w;experiment;2017-03-16-08-58-15;5,0;47,0;1000;0,0;1,0;2,0;3,0;row;1,0;False;False;False;0,832999944687;True;1,12999987602
KTS1993w;experiment;2017-03-16-08-58-15;5,0;48,0;1000;1,0;2,0;3,0;0,0;column;0,0;True;False;False;1,0;False;0,903000116348
KTS1993w;experiment;2017-03-16-08-58-15;6,0;1,0;-100;3,0;1,0;0,0;2,0;row;0,0;True;False;False;0,950000047684;False;0,529000043869
KTS1993w;experiment;2017-03-16-08-58-15;6,0;2,0;-100;1,0;2,0;0,0;3,0;column;1,0;True;False;True;1,617000103;True;1,27199983597
KTS1993w;experiment;2017-03-16-08-58-15;6,0;3,0;-100;2,0;0,0;1,0;3,0;row;0,0;False;False;False;1,05099987984;True;0,928999900818
KTS1993w;experiment;2017-03-16-08-58-15;6,0;4,0;-100;0,0;1,0;2,0;3,0;row;1,0;False;False;True;1,28100013733;False;0,697999954224
KTS1993w;experiment;2017-03-16-08-58-15;6,0;5,0;-100;2,0;0,0;3,0;1,0;row;0,0;False;False;False;0,917000055313;True;1,50499987602
KTS1993w;experiment;2017-03-16-08-58-15;6,0;6,0;-100;1,0;2,0;3,0;0,0;column;0,0;True;False;True;1,08500003815;True;0,927999973297
KTS1993w;experiment;2017-03-16-08-58-15;6,0;7,0;-100;1,0;2,0;3,0;0,0;column;0,0;False;False;False;1,05099987984;True;0,56500005722
KTS1993w;experiment;2017-03-16-08-58-15;6,0;8,0;-100;3,0;0,0;1,0;2,0;column;0,0;True;False;True;2,41700005531;True;0,828000068665
KTS1993w;experiment;2017-03-16-08-58-15;6,0;9,0;-100;1,0;3,0;0,0;2,0;column;0,0;True;False;True;1,64999985695;True;1,1360001564
KTS1993w;experiment;2017-03-16-08-58-15;6,0;10,0;-100;3,0;2,0;0,0;1,0;row;0,0;True;False;True;1,81699991226;True;0,871999979019
KTS1993w;experiment;2017-03-16-08-58-15;6,0;11,0;-100;3,0;0,0;1,0;2,0;column;1,0;True;True;False;1,81700015068;False;1,40400004387
KTS1993w;experiment;2017-03-16-08-58-15;6,0;12,0;-100;2,0;3,0;0,0;1,0;column;0,0;False;True;False;1,41700005531;True;0,927000045776
KTS1993w;experiment;2017-03-16-08-58-15;6,0;13,0;-100;1,0;3,0;2,0;0,0;column;0,0;False;True;False;1,48300004005;True;1,06300020218
KTS1993w;experiment;2017-03-16-08-58-15;6,0;14,0;-100;0,0;1,0;2,0;3,0;column;0,0;False;False;True;1,08299994469;False;0,797999858856
KTS1993w;experiment;2017-03-16-08-58-15;6,0;15,0;-100;2,0;1,0;0,0;3,0;row;1,0;False;False;False;1,34899997711;True;0,996999979019
KTS1993w;experiment;2017-03-16-08-58-15;6,0;16,0;-100;3,0;0,0;2,0;1,0;row;1,0;True;False;True;1,44900012016;True;1,50599980354
KTS1993w;experiment;2017-03-16-08-58-15;6,0;17,0;-100;3,0;2,0;1,0;0,0;row;0,0;True;False;True;2,21700000763;True;1,46800017357
KTS1993w;experiment;2017-03-16-08-58-15;6,0;18,0;-100;3,0;0,0;1,0;2,0;row;0,0;True;True;True;3,08400011063;True;0,734999895096
KTS1993w;experiment;2017-03-16-08-58-15;6,0;19,0;-100;0,0;1,0;2,0;3,0;column;0,0;True;False;True;1,14999985695;True;1,16300010681
KTS1993w;experiment;2017-03-16-08-58-15;6,0;20,0;-100;0,0;3,0;1,0;2,0;row;0,0;True;True;False;1,61699986458;False;0,93799996376
KTS1993w;experiment;2017-03-16-08-58-15;6,0;21,0;-100;1,0;0,0;3,0;2,0;row;0,0;True;True;True;0,949999809265;True;1,09899997711
KTS1993w;experiment;2017-03-16-08-58-15;6,0;22,0;-100;0,0;2,0;1,0;3,0;row;0,0;True;True;False;1,51499986649;False;0,973000049591
KTS1993w;experiment;2017-03-16-08-58-15;6,0;23,0;-100;0,0;1,0;2,0;3,0;row;0,0;False;True;False;1,71700000763;True;0,871999979019
KTS1993w;experiment;2017-03-16-08-58-15;6,0;24,0;-100;3,0;1,0;0,0;2,0;column;1,0;True;True;True;1,64999985695;True;1,03600001335
KTS1993w;experiment;2017-03-16-08-58-15;6,0;25,0;-100;1,0;2,0;0,0;3,0;row;1,0;False;False;False;1,74900007248;True;1,26900005341
KTS1993w;experiment;2017-03-16-08-58-15;6,0;26,0;-100;3,0;1,0;2,0;0,0;row;1,0;True;True;True;1,51399993896;True;0,901000022888
KTS1993w;experiment;2017-03-16-08-58-15;6,0;27,0;-100;2,0;3,0;0,0;1,0;row;1,0;True;True;False;1,0490000248;False;1,1210000515
KTS1993w;experiment;2017-03-16-08-58-15;6,0;28,0;-100;0,0;3,0;2,0;1,0;column;0,0;False;False;False;1,28399991989;True;1,06200003624
KTS1993w;experiment;2017-03-16-08-58-15;6,0;29,0;-100;1,0;2,0;0,0;3,0;row;0,0;True;True;True;1,28299999237;True;1,42699980736
KTS1993w;experiment;2017-03-16-08-58-15;6,0;30,0;-100;0,0;1,0;3,0;2,0;row;1,0;True;False;True;1,28299999237;True;1,06299996376
KTS1993w;experiment;2017-03-16-08-58-15;6,0;31,0;-100;0,0;1,0;2,0;3,0;column;1,0;False;False;False;1,75;True;0,735999822617
KTS1993w;experiment;2017-03-16-08-58-15;6,0;32,0;-100;1,0;0,0;3,0;2,0;row;1,0;True;False;True;1,28399991989;True;0,938999891281
KTS1993w;experiment;2017-03-16-08-58-15;6,0;33,0;-100;2,0;1,0;3,0;0,0;row;0,0;False;True;False;1,61699986458;True;1,49599981308
KTS1993w;experiment;2017-03-16-08-58-15;6,0;34,0;-100;0,0;2,0;3,0;1,0;row;0,0;False;False;True;1,3180000782;False;0,639000177383
KTS1993w;experiment;2017-03-16-08-58-15;6,0;35,0;-100;1,0;2,0;3,0;0,0;row;1,0;False;True;False;1,04999995232;True;1,2610001564
KTS1993w;experiment;2017-03-16-08-58-15;6,0;36,0;-100;2,0;0,0;1,0;3,0;row;1,0;True;False;True;1,75;True;0,664999961853
KTS1993w;experiment;2017-03-16-08-58-15;6,0;37,0;-100;0,0;1,0;2,0;3,0;row;0,0;True;True;False;1,65100002289;False;0,864000082016
KTS1993w;experiment;2017-03-16-08-58-15;6,0;38,0;-100;2,0;0,0;3,0;1,0;column;1,0;True;True;True;0,983000040054;True;1,3029999733
KTS1993w;experiment;2017-03-16-08-58-15;6,0;39,0;-100;2,0;3,0;1,0;0,0;row;1,0;False;False;True;1,14900016785;False;1,22999978065
KTS1993w;experiment;2017-03-16-08-58-15;6,0;40,0;-100;3,0;2,0;0,0;1,0;column;0,0;False;True;True;0,915000200272;False;0,530999898911
KTS1993w;experiment;2017-03-16-08-58-15;6,0;41,0;-100;0,0;2,0;3,0;1,0;column;1,0;True;False;True;1,08200001717;True;0,624000072479
KTS1993w;experiment;2017-03-16-08-58-15;6,0;42,0;-100;1,0;2,0;3,0;0,0;column;1,0;True;False;False;0,983999967575;False;1,36100006104
KTS1993w;experiment;2017-03-16-08-58-15;6,0;43,0;-100;0,0;3,0;2,0;1,0;column;0,0;True;True;True;0,982000112534;True;1,39199995995
KTS1993w;experiment;2017-03-16-08-58-15;6,0;44,0;-100;0,0;3,0;2,0;1,0;row;1,0;False;True;False;2,41599988937;True;1,09800004959
KTS1993w;experiment;2017-03-16-08-58-15;6,0;45,0;-100;3,0;0,0;2,0;1,0;column;0,0;True;False;False;1,54999995232;False;1,13399982452
KTS1993w;experiment;2017-03-16-08-58-15;6,0;46,0;-100;2,0;0,0;3,0;1,0;row;1,0;False;False;True;0,882999897003;False;1,26900005341
KTS1993w;experiment;2017-03-16-08-58-15;6,0;47,0;-100;3,0;0,0;1,0;2,0;column;0,0;False;True;True;1,04999995232;False;0,671999931335
KTS1993w;experiment;2017-03-16-08-58-15;6,0;48,0;-100;3,0;2,0;1,0;0,0;column;0,0;False;False;True;1,1819999218;False;0,68799996376
KTS1993w;experiment;2017-03-16-08-58-15;7,0;1,0;-100;3,0;2,0;1,0;0,0;column;1,0;False;False;True;0,950999975204;False;0,898999929428
KTS1993w;experiment;2017-03-16-08-58-15;7,0;2,0;-100;2,0;0,0;3,0;1,0;column;0,0;False;True;False;1,81599998474;True;1,43099999428
KTS1993w;experiment;2017-03-16-08-58-15;7,0;3,0;-100;1,0;0,0;2,0;3,0;row;0,0;False;True;True;2,18399977684;False;0,56299996376
KTS1993w;experiment;2017-03-16-08-58-15;7,0;4,0;-100;1,0;2,0;0,0;3,0;row;0,0;False;False;False;1,64800000191;True;1,13900017738
KTS1993w;experiment;2017-03-16-08-58-15;7,0;5,0;-100;2,0;1,0;0,0;3,0;row;0,0;False;True;False;1,18400001526;True;0,56200003624
KTS1993w;experiment;2017-03-16-08-58-15;7,0;6,0;-100;3,0;2,0;0,0;1,0;column;1,0;False;True;False;1,14900016785;True;1,09699988365
KTS1993w;experiment;2017-03-16-08-58-15;7,0;7,0;-100;2,0;1,0;0,0;3,0;column;1,0;False;True;True;1,38400006294;False;0,769999980927
KTS1993w;experiment;2017-03-16-08-58-15;7,0;8,0;-100;3,0;1,0;0,0;2,0;column;0,0;True;True;False;1,98399996758;False;0,99599981308
KTS1993w;experiment;2017-03-16-08-58-15;7,0;9,0;-100;2,0;1,0;0,0;3,0;column;1,0;True;False;False;1,34899997711;False;1,32899999619
KTS1993w;experiment;2017-03-16-08-58-15;7,0;10,0;-100;3,0;1,0;2,0;0,0;column;0,0;True;True;True;1,1819999218;True;0,629999876022
KTS1993w;experiment;2017-03-16-08-58-15;7,0;11,0;-100;3,0;2,0;1,0;0,0;row;1,0;False;False;False;1,81699991226;True;1,45700001717
KTS1993w;experiment;2017-03-16-08-58-15;7,0;12,0;-100;3,0;1,0;2,0;0,0;row;0,0;True;False;False;0,981999874115;False;0,928999900818
KTS1993w;experiment;2017-03-16-08-58-15;7,0;13,0;-100;2,0;3,0;0,0;1,0;column;1,0;True;True;False;1,65099978447;False;0,569000005722
KTS1993w;experiment;2017-03-16-08-58-15;7,0;14,0;-100;2,0;1,0;0,0;3,0;column;0,0;True;False;True;1,91699981689;True;1,40499997139
KTS1993w;experiment;2017-03-16-08-58-15;7,0;15,0;-100;0,0;3,0;2,0;1,0;column;1,0;False;True;False;1,01699995995;True;1,36400008202
KTS1993w;experiment;2017-03-16-08-58-15;7,0;16,0;-100;1,0;2,0;0,0;3,0;column;0,0;True;False;True;0,948999881744;True;0,762999773026
KTS1993w;experiment;2017-03-16-08-58-15;7,0;17,0;-100;1,0;3,0;0,0;2,0;row;0,0;True;True;True;1,08100008965;True;1,03999996185
KTS1993w;experiment;2017-03-16-08-58-15;7,0;18,0;-100;0,0;2,0;1,0;3,0;column;1,0;False;False;False;1,64999985695;True;1,12199997902
KTS1993w;experiment;2017-03-16-08-58-15;7,0;19,0;-100;3,0;0,0;2,0;1,0;column;1,0;True;False;True;1,54999995232;True;0,569999933243
KTS1993w;experiment;2017-03-16-08-58-15;7,0;20,0;-100;0,0;1,0;3,0;2,0;row;1,0;False;False;False;1,94999980927;True;0,855999946594
KTS1993w;experiment;2017-03-16-08-58-15;7,0;21,0;-100;3,0;1,0;2,0;0,0;column;1,0;True;False;True;1,25;True;1,47000002861
KTS1993w;experiment;2017-03-16-08-58-15;7,0;22,0;-100;3,0;1,0;0,0;2,0;column;0,0;False;True;False;2,15000009537;True;0,665999889374
KTS1993w;experiment;2017-03-16-08-58-15;7,0;23,0;-100;2,0;1,0;3,0;0,0;row;1,0;False;False;True;1,38400006294;False;0,603999853134
KTS1993w;experiment;2017-03-16-08-58-15;7,0;24,0;-100;1,0;3,0;2,0;0,0;row;1,0;True;True;True;1,61599993706;True;1,39699983597
KTS1993w;experiment;2017-03-16-08-58-15;7,0;25,0;-100;0,0;1,0;3,0;2,0;row;0,0;True;False;True;2,15000009537;True;0,793999910355
KTS1993w;experiment;2017-03-16-08-58-15;7,0;26,0;-100;1,0;3,0;2,0;0,0;column;0,0;True;False;True;1,48400020599;True;1,25800013542
KTS1993w;experiment;2017-03-16-08-58-15;7,0;27,0;-100;3,0;2,0;1,0;0,0;row;0,0;False;True;False;1,44799995422;True;1,15999984741
KTS1993w;experiment;2017-03-16-08-58-15;7,0;28,0;-100;2,0;3,0;1,0;0,0;column;1,0;False;False;True;1,14700007439;False;0,605999946594
KTS1993w;experiment;2017-03-16-08-58-15;7,0;29,0;-100;3,0;2,0;1,0;0,0;column;1,0;True;True;True;1,11500000954;True;1,45399999619
KTS1993w;experiment;2017-03-16-08-58-15;7,0;30,0;-100;0,0;3,0;2,0;1,0;row;1,0;True;False;True;1,81699991226;True;1,00300002098
KTS1993w;experiment;2017-03-16-08-58-15;7,0;31,0;-100;1,0;2,0;0,0;3,0;column;0,0;False;False;False;1,71700000763;True;0,9359998703
KTS1993w;experiment;2017-03-16-08-58-15;7,0;32,0;-100;0,0;2,0;3,0;1,0;column;0,0;True;False;True;1,71600008011;True;1,3029999733
KTS1993w;experiment;2017-03-16-08-58-15;7,0;33,0;-100;1,0;0,0;3,0;2,0;row;1,0;False;False;False;1,68200016022;True;0,793000221252
KTS1993w;experiment;2017-03-16-08-58-15;7,0;34,0;-100;1,0;0,0;2,0;3,0;row;1,0;True;True;True;1,74899983406;True;0,700000047684
KTS1993w;experiment;2017-03-16-08-58-15;7,0;35,0;-100;2,0;1,0;0,0;3,0;column;0,0;False;False;False;2,04999995232;True;1,30100011826
KTS1993w;experiment;2017-03-16-08-58-15;7,0;36,0;-100;1,0;0,0;2,0;3,0;row;0,0;True;False;True;1,64899992943;True;1,33000016212
KTS1993w;experiment;2017-03-16-08-58-15;7,0;37,0;-100;2,0;3,0;0,0;1,0;column;1,0;False;True;False;1,24900007248;True;1,20200014114
KTS1993w;experiment;2017-03-16-08-58-15;7,0;38,0;-100;3,0;0,0;1,0;2,0;row;1,0;False;True;False;1,74900007248;True;0,996000051498
KTS1993w;experiment;2017-03-16-08-58-15;7,0;39,0;-100;0,0;2,0;1,0;3,0;row;0,0;False;False;False;1,08299994469;True;1,10400009155
KTS1993w;experiment;2017-03-16-08-58-15;7,0;40,0;-100;0,0;2,0;3,0;1,0;row;0,0;True;True;True;1,21799993515;True;0,802999973297
KTS1993w;experiment;2017-03-16-08-58-15;7,0;41,0;-100;0,0;2,0;1,0;3,0;row;1,0;True;False;False;1,71700000763;False;0,603000164032
KTS1993w;experiment;2017-03-16-08-58-15;7,0;42,0;-100;1,0;0,0;2,0;3,0;column;0,0;False;True;False;1,91400003433;True;0,702000141144
KTS1993w;experiment;2017-03-16-08-58-15;7,0;43,0;-100;0,0;3,0;1,0;2,0;column;0,0;False;False;False;1,88400006294;True;0,569000005722
KTS1993w;experiment;2017-03-16-08-58-15;7,0;44,0;-100;1,0;0,0;3,0;2,0;column;1,0;True;False;True;2,64800000191;True;1,09999990463
KTS1993w;experiment;2017-03-16-08-58-15;7,0;45,0;-100;3,0;0,0;2,0;1,0;column;1,0;False;False;True;2,15100002289;False;1,38599991798
KTS1993w;experiment;2017-03-16-08-58-15;7,0;46,0;-100;1,0;3,0;0,0;2,0;column;1,0;True;False;False;1,98399996758;False;1,07000017166
KTS1993w;experiment;2017-03-16-08-58-15;7,0;47,0;-100;1,0;0,0;2,0;3,0;column;0,0;True;True;False;1,18299984932;False;1,06699991226
KTS1993w;experiment;2017-03-16-08-58-15;7,0;48,0;-100;0,0;1,0;3,0;2,0;column;0,0;True;True;True;1,85099983215;True;0,731999874115
KTS1993w;experiment;2017-03-16-08-58-15;8,0;1,0;1000;2,0;1,0;0,0;3,0;row;1,0;False;True;True;2,1289999485;False;1,33299994469
KTS1993w;experiment;2017-03-16-08-58-15;8,0;2,0;1000;1,0;3,0;0,0;2,0;column;0,0;False;False;True;1,33299994469;False;0,735000133514
KTS1993w;experiment;2017-03-16-08-58-15;8,0;3,0;1000;3,0;1,0;2,0;0,0;row;0,0;False;False;False;3,46600008011;True;0,697000026703
KTS1993w;experiment;2017-03-16-08-58-15;8,0;4,0;1000;0,0;3,0;1,0;2,0;row;1,0;False;False;True;2,66700005531;False;1,33599996567
KTS1993w;experiment;2017-03-16-08-58-15;8,0;5,0;1000;3,0;0,0;2,0;1,0;row;1,0;True;True;True;1,10099983215;True;1,13399982452
KTS1993w;experiment;2017-03-16-08-58-15;8,0;6,0;1000;2,0;0,0;1,0;3,0;row;0,0;False;False;False;1,06699991226;True;0,801000118256
KTS1993w;experiment;2017-03-16-08-58-15;8,0;7,0;1000;3,0;0,0;1,0;2,0;column;0,0;False;False;False;1,09999990463;True;1,49699997902
KTS1993w;experiment;2017-03-16-08-58-15;8,0;8,0;1000;0,0;3,0;2,0;1,0;column;1,0;True;False;False;0,599999904633;False;1,2009999752
KTS1993w;experiment;2017-03-16-08-58-15;8,0;9,0;1000;1,0;3,0;0,0;2,0;row;1,0;True;True;True;1,23399996758;True;1,06399989128
KTS1993w;experiment;2017-03-16-08-58-15;8,0;10,0;1000;2,0;0,0;1,0;3,0;row;1,0;True;True;True;2,23300004005;True;0,868000030518
KTS1993w;experiment;2017-03-16-08-58-15;8,0;11,0;1000;3,0;0,0;1,0;2,0;row;1,0;False;False;True;3,46600008011;False;1,4359998703
KTS1993w;experiment;2017-03-16-08-58-15;8,0;12,0;1000;1,0;0,0;3,0;2,0;row;1,0;True;False;True;3,56699991226;True;0,625
KTS1993w;experiment;2017-03-16-08-58-15;8,0;13,0;1000;1,0;0,0;2,0;3,0;column;0,0;True;True;True;1,66599988937;True;1,29800009727
KTS1993w;experiment;2017-03-16-08-58-15;8,0;14,0;1000;2,0;3,0;1,0;0,0;column;1,0;False;True;True;1,56699991226;False;1,13199996948
KTS1993w;experiment;2017-03-16-08-58-15;8,0;15,0;1000;0,0;2,0;3,0;1,0;column;0,0;True;False;True;3,29999995232;True;1,32700014114
KTS1993w;experiment;2017-03-16-08-58-15;8,0;16,0;1000;2,0;1,0;0,0;3,0;column;1,0;False;False;False;1,03299999237;True;0,634000062943
KTS1993w;experiment;2017-03-16-08-58-15;8,0;17,0;1000;1,0;2,0;3,0;0,0;column;1,0;True;True;True;0,567000150681;True;0,565999984741
KTS1993w;experiment;2017-03-16-08-58-15;8,0;18,0;1000;0,0;1,0;3,0;2,0;row;1,0;True;False;True;0,5;True;1,13400006294
KTS1993w;experiment;2017-03-16-08-58-15;8,0;19,0;1000;1,0;3,0;0,0;2,0;column;1,0;True;False;True;0,766999959946;True;0,970999956131
KTS1993w;experiment;2017-03-16-08-58-15;8,0;20,0;1000;2,0;1,0;0,0;3,0;column;0,0;False;False;False;0,96599984169;True;1,50600004196
KTS1993w;experiment;2017-03-16-08-58-15;8,0;21,0;1000;0,0;1,0;3,0;2,0;column;0,0;True;False;True;0,833000183105;True;1,29799985886
KTS1993w;experiment;2017-03-16-08-58-15;8,0;22,0;1000;2,0;3,0;1,0;0,0;row;1,0;True;True;True;0,434000015259;True;1,50499987602
KTS1993w;experiment;2017-03-16-08-58-15;8,0;23,0;1000;3,0;1,0;0,0;2,0;row;1,0;False;True;False;1,06700015068;True;1,03600001335
KTS1993w;experiment;2017-03-16-08-58-15;8,0;24,0;1000;0,0;1,0;3,0;2,0;row;0,0;True;True;True;1,03399991989;True;1,16100001335
KTS1993w;experiment;2017-03-16-08-58-15;8,0;25,0;1000;2,0;3,0;0,0;1,0;row;1,0;True;False;False;0,899999856949;False;0,695999860764
KTS1993w;experiment;2017-03-16-08-58-15;8,0;26,0;1000;0,0;2,0;1,0;3,0;row;0,0;False;True;False;1,03399991989;True;0,868999958038
KTS1993w;experiment;2017-03-16-08-58-15;8,0;27,0;1000;0,0;2,0;1,0;3,0;row;0,0;True;False;True;0,733000040054;True;0,536000013351
KTS1993w;experiment;2017-03-16-08-58-15;8,0;28,0;1000;0,0;2,0;1,0;3,0;row;1,0;True;False;False;0,966000080109;False;0,730000019073
KTS1993w;experiment;2017-03-16-08-58-15;8,0;29,0;1000;1,0;0,0;2,0;3,0;row;1,0;True;False;False;0,934000015259;False;1,33899998665
KTS1993w;experiment;2017-03-16-08-58-15;8,0;30,0;1000;2,0;3,0;0,0;1,0;column;1,0;True;False;True;0,332999944687;True;0,957999944687
KTS1993w;experiment;2017-03-16-08-58-15;8,0;31,0;1000;1,0;3,0;2,0;0,0;row;1,0;True;False;True;0,996000051498;True;1,46300005913
KTS1993w;experiment;2017-03-16-08-58-15;8,0;32,0;1000;2,0;0,0;1,0;3,0;column;0,0;True;False;False;0,700000047684;False;0,802000045776
KTS1993w;experiment;2017-03-16-08-58-15;8,0;33,0;1000;1,0;2,0;3,0;0,0;row;1,0;False;False;False;0,867000102997;True;1,33400011063
KTS1993w;experiment;2017-03-16-08-58-15;8,0;34,0;1000;2,0;3,0;1,0;0,0;row;0,0;False;False;True;0,600000143051;False;1,20399999619
KTS1993w;experiment;2017-03-16-08-58-15;8,0;35,0;1000;2,0;3,0;0,0;1,0;row;0,0;True;True;True;1,26699995995;True;1,26200008392
KTS1993w;experiment;2017-03-16-08-58-15;8,0;36,0;1000;3,0;2,0;1,0;0,0;column;0,0;True;False;False;1,09899997711;False;1,33800005913
KTS1993w;experiment;2017-03-16-08-58-15;8,0;37,0;1000;0,0;2,0;3,0;1,0;column;1,0;False;True;False;0,966000080109;True;0,657999992371
KTS1993w;experiment;2017-03-16-08-58-15;8,0;38,0;1000;3,0;1,0;0,0;2,0;column;0,0;True;True;True;3,03299999237;True;0,661999940872
KTS1993w;experiment;2017-03-16-08-58-15;8,0;39,0;1000;2,0;0,0;3,0;1,0;column;0,0;False;True;False;0,801000118256;True;1,30399990082
KTS1993w;experiment;2017-03-16-08-58-15;8,0;40,0;1000;1,0;0,0;3,0;2,0;row;0,0;False;True;False;0,799999952316;True;1,20399999619
KTS1993w;experiment;2017-03-16-08-58-15;8,0;41,0;1000;0,0;1,0;2,0;3,0;column;0,0;True;False;True;1,20000004768;True;1,03600001335
KTS1993w;experiment;2017-03-16-08-58-15;8,0;42,0;1000;0,0;2,0;3,0;1,0;row;1,0;True;True;False;1,96599984169;False;1,12599992752
KTS1993w;experiment;2017-03-16-08-58-15;8,0;43,0;1000;0,0;2,0;1,0;3,0;row;1,0;False;True;True;0,832000017166;False;0,862999916077
KTS1993w;experiment;2017-03-16-08-58-15;8,0;44,0;1000;0,0;1,0;2,0;3,0;row;0,0;False;False;True;1,06500005722;False;1,33200001717
KTS1993w;experiment;2017-03-16-08-58-15;8,0;45,0;1000;1,0;0,0;3,0;2,0;column;0,0;False;False;False;0,799999952316;True;0,628999948502
KTS1993w;experiment;2017-03-16-08-58-15;8,0;46,0;1000;3,0;2,0;0,0;1,0;column;0,0;True;False;True;1,83500003815;True;1,47000002861
KTS1993w;experiment;2017-03-16-08-58-15;8,0;47,0;1000;2,0;3,0;0,0;1,0;column;1,0;False;True;True;1,43300008774;False;1,33599996567
KTS1993w;experiment;2017-03-16-08-58-15;8,0;48,0;1000;0,0;3,0;2,0;1,0;column;0,0;False;True;True;2,33299994469;False;1,46700000763
KTS1993w;experiment;2017-03-16-08-58-15;9,0;1,0;100;3,0;0,0;1,0;2,0;column;0,0;False;False;False;0,832000017166;True;1,46700000763
KTS1993w;experiment;2017-03-16-08-58-15;9,0;2,0;100;1,0;3,0;2,0;0,0;row;1,0;True;True;True;1,26699995995;True;1,49399995804
KTS1993w;experiment;2017-03-16-08-58-15;9,0;3,0;100;2,0;1,0;0,0;3,0;column;1,0;False;False;False;1,39999985695;True;0,865000009537
KTS1993w;experiment;2017-03-16-08-58-15;9,0;4,0;100;2,0;0,0;3,0;1,0;column;1,0;False;False;False;1,13199996948;True;0,996999979019
KTS1993w;experiment;2017-03-16-08-58-15;9,0;5,0;100;1,0;0,0;2,0;3,0;column;0,0;False;True;True;1,29999995232;False;0,898999929428
KTS1993w;experiment;2017-03-16-08-58-15;9,0;6,0;100;3,0;1,0;0,0;2,0;row;0,0;False;False;False;1,96599984169;True;1,02800011635
KTS1993w;experiment;2017-03-16-08-58-15;9,0;7,0;100;0,0;3,0;1,0;2,0;row;0,0;True;True;True;1,367000103;True;1,09599995613
KTS1993w;experiment;2017-03-16-08-58-15;9,0;8,0;100;0,0;3,0;2,0;1,0;column;0,0;False;True;False;2,33299994469;True;0,631000041962
KTS1993w;experiment;2017-03-16-08-58-15;9,0;9,0;100;2,0;3,0;0,0;1,0;column;1,0;False;True;False;1,367000103;True;0,628999948502
KTS1993w;experiment;2017-03-16-08-58-15;9,0;10,0;100;3,0;1,0;2,0;0,0;row;0,0;False;True;True;1,29999995232;False;1,25699996948
KTS1993w;experiment;2017-03-16-08-58-15;9,0;11,0;100;1,0;3,0;2,0;0,0;row;1,0;False;False;True;1,23300004005;False;1,26600003242
KTS1993w;experiment;2017-03-16-08-58-15;9,0;12,0;100;1,0;0,0;2,0;3,0;row;1,0;False;True;False;1,93299984932;True;0,761000156403
KTS1993w;experiment;2017-03-16-08-58-15;9,0;13,0;100;2,0;1,0;3,0;0,0;column;1,0;False;True;False;1,03200006485;True;0,6890001297
KTS1993w;experiment;2017-03-16-08-58-15;9,0;14,0;100;1,0;2,0;3,0;0,0;column;1,0;True;False;False;1,0;False;1,49500012398
KTS1993w;experiment;2017-03-16-08-58-15;9,0;15,0;100;3,0;0,0;1,0;2,0;row;0,0;True;False;False;1,03400015831;False;1,19899988174
KTS1993w;experiment;2017-03-16-08-58-15;9,0;16,0;100;2,0;3,0;1,0;0,0;column;1,0;False;True;False;0,899999856949;True;1,29400014877
KTS1993w;experiment;2017-03-16-08-58-15;9,0;17,0;100;3,0;1,0;2,0;0,0;row;1,0;False;True;True;1,33299994469;False;1,20299983025
KTS1993w;experiment;2017-03-16-08-58-15;9,0;18,0;100;3,0;0,0;2,0;1,0;row;0,0;True;False;False;0,934000015259;False;0,530999898911
KTS1993w;experiment;2017-03-16-08-58-15;9,0;19,0;100;1,0;3,0;2,0;0,0;column;1,0;True;True;True;0,833000183105;True;0,570999860764
KTS1993w;experiment;2017-03-16-08-58-15;9,0;20,0;100;2,0;0,0;1,0;3,0;row;1,0;False;False;True;1,76699995995;False;1,23000001907
KTS1993w;experiment;2017-03-16-08-58-15;9,0;21,0;100;2,0;1,0;3,0;0,0;row;1,0;False;True;True;2,10000014305;False;1,0
KTS1993w;experiment;2017-03-16-08-58-15;9,0;22,0;100;1,0;0,0;2,0;3,0;row;0,0;True;False;True;1,79699993134;True;0,9359998703
KTS1993w;experiment;2017-03-16-08-58-15;9,0;23,0;100;2,0;3,0;0,0;1,0;row;0,0;False;False;False;2,40000009537;True;1,3710000515
KTS1993w;experiment;2017-03-16-08-58-15;9,0;24,0;100;0,0;1,0;2,0;3,0;row;1,0;True;False;True;2,26799988747;True;0,901999950409
KTS1993w;experiment;2017-03-16-08-58-15;9,0;25,0;100;1,0;2,0;3,0;0,0;row;0,0;False;True;False;1,56500005722;True;1,10500001907
KTS1993w;experiment;2017-03-16-08-58-15;9,0;26,0;100;2,0;0,0;1,0;3,0;column;1,0;False;False;False;1,0;True;1,16400003433
KTS1993w;experiment;2017-03-16-08-58-15;9,0;27,0;100;1,0;0,0;3,0;2,0;column;0,0;False;True;False;1,13399982452;True;0,700999975204
KTS1993w;experiment;2017-03-16-08-58-15;9,0;28,0;100;0,0;2,0;1,0;3,0;row;0,0;True;False;False;0,967000007629;False;1,40400004387
KTS1993w;experiment;2017-03-16-08-58-15;9,0;29,0;100;2,0;3,0;0,0;1,0;row;0,0;True;False;False;2,43400001526;False;0,764000177383
KTS1993w;experiment;2017-03-16-08-58-15;9,0;30,0;100;2,0;1,0;3,0;0,0;row;0,0;False;False;True;1,03299999237;False;1,43099999428
KTS1993w;experiment;2017-03-16-08-58-15;9,0;31,0;100;2,0;3,0;1,0;0,0;column;0,0;True;True;True;2,40000009537;True;1,07100009918
KTS1993w;experiment;2017-03-16-08-58-15;9,0;32,0;100;2,0;1,0;3,0;0,0;column;0,0;True;False;False;1,76600003242;False;1,39700007439
KTS1993w;experiment;2017-03-16-08-58-15;9,0;33,0;100;3,0;0,0;2,0;1,0;column;1,0;True;False;False;1,0;False;0,736000061035
KTS1993w;experiment;2017-03-16-08-58-15;9,0;34,0;100;3,0;2,0;0,0;1,0;column;0,0;False;True;True;1,90000009537;False;0,756999969482
KTS1993w;experiment;2017-03-16-08-58-15;9,0;35,0;100;1,0;2,0;3,0;0,0;column;1,0;False;True;False;2,0;True;1,39599990845
KTS1993w;experiment;2017-03-16-08-58-15;9,0;36,0;100;3,0;2,0;1,0;0,0;row;0,0;True;True;True;1,66700005531;True;0,901999950409
KTS1993w;experiment;2017-03-16-08-58-15;9,0;37,0;100;0,0;3,0;2,0;1,0;column;1,0;False;False;False;1,33299994469;True;0,695000171661
KTS1993w;experiment;2017-03-16-08-58-15;9,0;38,0;100;1,0;2,0;3,0;0,0;row;1,0;False;True;False;2,13300013542;True;0,789999961853
KTS1993w;experiment;2017-03-16-08-58-15;9,0;39,0;100;3,0;1,0;0,0;2,0;column;0,0;False;True;True;0,898999929428;False;0,888000011444
KTS1993w;experiment;2017-03-16-08-58-15;9,0;40,0;100;2,0;3,0;1,0;0,0;row;0,0;True;False;False;1,29999995232;False;0,861999988556
KTS1993w;experiment;2017-03-16-08-58-15;9,0;41,0;100;3,0;0,0;2,0;1,0;column;0,0;True;False;True;1,03500008583;True;0,604000091553
KTS1993w;experiment;2017-03-16-08-58-15;9,0;42,0;100;2,0;0,0;3,0;1,0;column;0,0;True;True;True;0,799999952316;True;1,09700012207
KTS1993w;experiment;2017-03-16-08-58-15;9,0;43,0;100;1,0;2,0;0,0;3,0;column;0,0;False;False;False;1,16699981689;True;1,46500015259
KTS1993w;experiment;2017-03-16-08-58-15;9,0;44,0;100;1,0;0,0;3,0;2,0;row;0,0;True;False;False;1,20000004768;False;0,804000139236
KTS1993w;experiment;2017-03-16-08-58-15;9,0;45,0;100;0,0;2,0;3,0;1,0;column;0,0;False;True;True;0,766999959946;False;1,3220000267
KTS1993w;experiment;2017-03-16-08-58-15;9,0;46,0;100;0,0;2,0;3,0;1,0;column;1,0;False;False;True;0,967000007629;False;0,802000045776
KTS1993w;experiment;2017-03-16-08-58-15;9,0;47,0;100;3,0;2,0;0,0;1,0;column;1,0;False;False;False;0,967000007629;True;0,671999931335
KTS1993w;experiment;2017-03-16-08-58-15;9,0;48,0;100;1,0;3,0;0,0;2,0;row;0,0;True;False;True;1,03299999237;True;0,930000066757
KTS1993w;experiment;2017-03-16-08-58-15;10,0;1,0;-100;0,0;2,0;1,0;3,0;column;0,0;True;True;True;0,882999897003;True;0,628999948502
KTS1993w;experiment;2017-03-16-08-58-15;10,0;2,0;-100;2,0;1,0;3,0;0,0;column;0,0;True;True;True;1,75099992752;True;1,39899992943
KTS1993w;experiment;2017-03-16-08-58-15;10,0;3,0;-100;0,0;3,0;1,0;2,0;row;1,0;True;False;True;1,21700000763;True;1,4350001812
KTS1993w;experiment;2017-03-16-08-58-15;10,0;4,0;-100;1,0;3,0;2,0;0,0;column;1,0;True;False;True;2,21499991417;True;1,45899987221
KTS1993w;experiment;2017-03-16-08-58-15;10,0;5,0;-100;2,0;0,0;3,0;1,0;column;0,0;True;True;True;1,68000006676;True;1,4390001297
KTS1993w;experiment;2017-03-16-08-58-15;10,0;6,0;-100;3,0;0,0;1,0;2,0;column;1,0;False;True;False;1,48200011253;True;0,595999956131
KTS1993w;experiment;2017-03-16-08-58-15;10,0;7,0;-100;2,0;0,0;3,0;1,0;column;1,0;False;False;False;1,64899992943;True;0,707000017166
KTS1993w;experiment;2017-03-16-08-58-15;10,0;8,0;-100;0,0;3,0;2,0;1,0;row;0,0;True;True;True;1,22099995613;True;0,93499994278
KTS1993w;experiment;2017-03-16-08-58-15;10,0;9,0;-100;3,0;1,0;2,0;0,0;column;1,0;False;False;False;2,5490000248;True;0,628999948502
KTS1993w;experiment;2017-03-16-08-58-15;10,0;10,0;-100;2,0;3,0;1,0;0,0;column;0,0;False;False;False;2,38399982452;True;1,0680000782
KTS1993w;experiment;2017-03-16-08-58-15;10,0;11,0;-100;2,0;3,0;1,0;0,0;column;1,0;True;False;True;1,48300004005;True;0,897000074387
KTS1993w;experiment;2017-03-16-08-58-15;10,0;12,0;-100;2,0;3,0;1,0;0,0;row;0,0;False;True;False;1,11699986458;True;1,2610001564
KTS1993w;experiment;2017-03-16-08-58-15;10,0;13,0;-100;2,0;1,0;3,0;0,0;row;1,0;True;True;True;2,58200001717;True;0,873000144958
KTS1993w;experiment;2017-03-16-08-58-15;10,0;14,0;-100;1,0;2,0;3,0;0,0;column;1,0;False;True;False;3,48399996758;True;1,23399996758
KTS1993w;experiment;2017-03-16-08-58-15;10,0;15,0;-100;3,0;0,0;2,0;1,0;row;0,0;False;False;False;1,18099999428;True;0,733999967575
KTS1993w;experiment;2017-03-16-08-58-15;10,0;16,0;-100;1,0;3,0;0,0;2,0;row;1,0;False;True;False;1,38400006294;True;0,636999845505
KTS1993w;experiment;2017-03-16-08-58-15;10,0;17,0;-100;2,0;1,0;3,0;0,0;column;1,0;False;False;False;1,64999985695;True;0,563999891281
KTS1993w;experiment;2017-03-16-08-58-15;10,0;18,0;-100;2,0;1,0;3,0;0,0;row;0,0;True;True;True;2,48199987411;True;1,36999988556
KTS1993w;experiment;2017-03-16-08-58-15;10,0;19,0;-100;1,0;0,0;3,0;2,0;row;0,0;False;False;False;1,48200011253;True;1,40300011635
KTS1993w;experiment;2017-03-16-08-58-15;10,0;20,0;-100;2,0;3,0;1,0;0,0;column;0,0;True;True;True;1,38399982452;True;0,594000101089
KTS1993w;experiment;2017-03-16-08-58-15;10,0;21,0;-100;0,0;2,0;3,0;1,0;row;1,0;False;True;False;1,24900007248;True;1,0529999733
KTS1993w;experiment;2017-03-16-08-58-15;10,0;22,0;-100;1,0;3,0;0,0;2,0;row;0,0;False;False;False;1,58200001717;True;0,862999916077
KTS1993w;experiment;2017-03-16-08-58-15;10,0;23,0;-100;2,0;1,0;0,0;3,0;row;0,0;True;False;True;1,58300018311;True;0,769999980927
KTS1993w;experiment;2017-03-16-08-58-15;10,0;24,0;-100;1,0;3,0;2,0;0,0;row;1,0;False;True;False;3,14999985695;True;0,600000143051
KTS1993w;experiment;2017-03-16-08-58-15;10,0;25,0;-100;2,0;0,0;3,0;1,0;row;1,0;True;True;True;1,61699986458;True;1,16199994087
KTS1993w;experiment;2017-03-16-08-58-15;10,0;26,0;-100;0,0;1,0;2,0;3,0;column;1,0;True;True;False;1,31600022316;False;1,33499979973
KTS1993w;experiment;2017-03-16-08-58-15;10,0;27,0;-100;0,0;3,0;1,0;2,0;row;1,0;False;True;True;1,75;False;0,935000181198
KTS1993w;experiment;2017-03-16-08-58-15;10,0;28,0;-100;3,0;0,0;2,0;1,0;row;0,0;True;False;True;1,88499999046;True;0,723999977112
KTS1993w;experiment;2017-03-16-08-58-15;10,0;29,0;-100;3,0;2,0;1,0;0,0;row;1,0;True;False;False;1,35000014305;False;0,602999925613
KTS1993w;experiment;2017-03-16-08-58-15;10,0;30,0;-100;0,0;2,0;3,0;1,0;column;1,0;False;True;False;1,71599984169;True;0,830000162125
KTS1993w;experiment;2017-03-16-08-58-15;10,0;31,0;-100;1,0;3,0;2,0;0,0;row;0,0;True;False;True;1,58399987221;True;0,665000200272
KTS1993w;experiment;2017-03-16-08-58-15;10,0;32,0;-100;0,0;2,0;1,0;3,0;row;1,0;False;True;False;1,41599988937;True;0,90499997139
KTS1993w;experiment;2017-03-16-08-58-15;10,0;33,0;-100;0,0;3,0;2,0;1,0;column;1,0;True;False;True;1,45000004768;True;1,09299993515
KTS1993w;experiment;2017-03-16-08-58-15;10,0;34,0;-100;3,0;1,0;0,0;2,0;row;1,0;False;True;False;0,950000047684;True;1,36500000954
KTS1993w;experiment;2017-03-16-08-58-15;10,0;35,0;-100;2,0;1,0;3,0;0,0;column;1,0;True;True;False;1,14999985695;False;0,673000097275
KTS1993w;experiment;2017-03-16-08-58-15;10,0;36,0;-100;2,0;1,0;3,0;0,0;column;0,0;False;False;False;1,28099989891;True;1,49699997902
KTS1993w;experiment;2017-03-16-08-58-15;10,0;37,0;-100;2,0;0,0;1,0;3,0;row;1,0;False;True;False;0,950000047684;True;0,696000099182
KTS1993w;experiment;2017-03-16-08-58-15;10,0;38,0;-100;2,0;0,0;1,0;3,0;column;1,0;True;False;False;1,31599998474;False;1,39800000191
KTS1993w;experiment;2017-03-16-08-58-15;10,0;39,0;-100;0,0;3,0;1,0;2,0;column;1,0;False;True;False;1,08200001717;True;1,03600001335
KTS1993w;experiment;2017-03-16-08-58-15;10,0;40,0;-100;2,0;1,0;0,0;3,0;row;1,0;True;True;True;1,51399993896;True;0,563999891281
KTS1993w;experiment;2017-03-16-08-58-15;10,0;41,0;-100;1,0;0,0;3,0;2,0;column;0,0;False;True;False;0,950000047684;True;1,09999990463
KTS1993w;experiment;2017-03-16-08-58-15;10,0;42,0;-100;1,0;0,0;3,0;2,0;column;1,0;False;False;False;1,08200001717;True;1,03800010681
KTS1993w;experiment;2017-03-16-08-58-15;10,0;43,0;-100;1,0;3,0;0,0;2,0;column;0,0;False;False;False;1,4470000267;True;1,02600002289
KTS1993w;experiment;2017-03-16-08-58-15;10,0;44,0;-100;0,0;2,0;3,0;1,0;column;0,0;False;True;True;2,4509999752;False;1,33800005913
KTS1993w;experiment;2017-03-16-08-58-15;10,0;45,0;-100;1,0;2,0;3,0;0,0;row;0,0;True;True;True;1,31699991226;True;0,934000015259
KTS1993w;experiment;2017-03-16-08-58-15;10,0;46,0;-100;2,0;3,0;0,0;1,0;row;0,0;False;True;True;1,71700000763;False;0,789999961853
KTS1993w;experiment;2017-03-16-08-58-15;10,0;47,0;-100;1,0;3,0;0,0;2,0;column;1,0;False;False;True;1,21700000763;False;1,16499996185
KTS1993w;experiment;2017-03-16-08-58-15;10,0;48,0;-100;0,0;2,0;1,0;3,0;column;0,0;False;False;False;1,08100008965;True;1,33899998665
KTS1993w;experiment;2017-03-16-08-58-15;11,0;1,0;100;3,0;2,0;1,0;0,0;row;1,0;True;False;True;53,7990000248;True;1,49900007248
KTS1993w;experiment;2017-03-16-08-58-15;11,0;2,0;100;2,0;0,0;3,0;1,0;row;0,0;True;False;True;6,59999990463;True;1,46499991417
KTS1993w;experiment;2017-03-16-08-58-15;11,0;3,0;100;2,0;1,0;0,0;3,0;column;0,0;True;True;True;1,39999985695;True;1,36800003052
KTS1993w;experiment;2017-03-16-08-58-15;11,0;4,0;100;3,0;2,0;1,0;0,0;column;1,0;False;True;False;0,766999959946;True;1,16799998283
KTS1993w;experiment;2017-03-16-08-58-15;11,0;5,0;100;0,0;2,0;1,0;3,0;column;1,0;False;True;False;1,29999995232;True;1,13800001144
KTS1993w;experiment;2017-03-16-08-58-15;11,0;6,0;100;2,0;3,0;0,0;1,0;column;0,0;True;False;True;0,865999937057;True;0,739000082016
KTS1993w;experiment;2017-03-16-08-58-15;11,0;7,0;100;1,0;0,0;3,0;2,0;column;1,0;False;True;False;0,900000095367;True;0,631000041962
KTS1993w;experiment;2017-03-16-08-58-15;11,0;8,0;100;2,0;0,0;3,0;1,0;column;0,0;False;False;True;0,733999967575;False;0,56500005722
KTS1993w;experiment;2017-03-16-08-58-15;11,0;9,0;100;0,0;3,0;2,0;1,0;row;1,0;True;False;False;0,899999856949;False;1,49900007248
KTS1993w;experiment;2017-03-16-08-58-15;11,0;10,0;100;0,0;2,0;1,0;3,0;row;1,0;False;False;True;0,766999959946;False;1,30099987984
KTS1993w;experiment;2017-03-16-08-58-15;11,0;11,0;100;3,0;1,0;2,0;0,0;column;0,0;True;True;False;0,900000095367;False;1,27099990845
KTS1993w;experiment;2017-03-16-08-58-15;11,0;12,0;100;1,0;3,0;0,0;2,0;row;1,0;True;True;False;0,932999849319;False;0,633000135422
KTS1993w;experiment;2017-03-16-08-58-15;11,0;13,0;100;0,0;1,0;2,0;3,0;column;1,0;False;False;True;0,832999944687;False;1,36900019646
KTS1993w;experiment;2017-03-16-08-58-15;11,0;14,0;100;0,0;1,0;3,0;2,0;row;1,0;True;False;True;1,132999897;True;1,49500012398
KTS1993w;experiment;2017-03-16-08-58-15;11,0;15,0;100;1,0;3,0;2,0;0,0;row;0,0;True;False;True;0,900000095367;True;1,16000008583
KTS1993w;experiment;2017-03-16-08-58-15;11,0;16,0;100;0,0;3,0;1,0;2,0;column;0,0;True;True;True;1,03299999237;True;1,23699998856
KTS1993w;experiment;2017-03-16-08-58-15;11,0;17,0;100;1,0;0,0;3,0;2,0;row;1,0;True;True;True;1,56600022316;True;1,15799999237
KTS1993w;experiment;2017-03-16-08-58-15;11,0;18,0;100;3,0;1,0;0,0;2,0;row;0,0;True;False;False;1,40000009537;False;1,43800020218
KTS1993w;experiment;2017-03-16-08-58-15;11,0;19,0;100;1,0;2,0;0,0;3,0;column;1,0;False;False;True;1,13300013542;False;0,663000106812
KTS1993w;experiment;2017-03-16-08-58-15;11,0;20,0;100;0,0;2,0;3,0;1,0;column;0,0;True;True;True;0,967000007629;True;0,768000125885
KTS1993w;experiment;2017-03-16-08-58-15;11,0;21,0;100;0,0;1,0;2,0;3,0;column;1,0;True;False;True;0,96599984169;True;1,39500021935
KTS1993w;experiment;2017-03-16-08-58-15;11,0;22,0;100;1,0;0,0;2,0;3,0;row;0,0;False;False;True;1,33299994469;False;1,46600008011
KTS1993w;experiment;2017-03-16-08-58-15;11,0;23,0;100;2,0;3,0;1,0;0,0;row;0,0;False;True;False;1,03299999237;True;1,39899992943
KTS1993w;experiment;2017-03-16-08-58-15;11,0;24,0;100;2,0;0,0;1,0;3,0;column;0,0;False;True;False;1,76600003242;True;1,09500002861
KTS1993w;experiment;2017-03-16-08-58-15;11,0;25,0;100;1,0;2,0;0,0;3,0;column;0,0;True;False;False;2,79800009727;False;1,17000007629
KTS1993w;experiment;2017-03-16-08-58-15;11,0;26,0;100;3,0;2,0;1,0;0,0;row;1,0;False;False;True;1,0;False;0,795000076294
KTS1993w;experiment;2017-03-16-08-58-15;11,0;27,0;100;0,0;1,0;2,0;3,0;row;1,0;False;False;False;1,03299999237;True;1,30499982834
KTS1993w;experiment;2017-03-16-08-58-15;11,0;28,0;100;0,0;3,0;1,0;2,0;column;1,0;True;False;False;0,999000072479;False;1,40200018883
KTS1993w;experiment;2017-03-16-08-58-15;11,0;29,0;100;0,0;1,0;2,0;3,0;row;0,0;True;False;True;0,632999897003;True;0,572999954224
KTS1993w;experiment;2017-03-16-08-58-15;11,0;30,0;100;3,0;0,0;2,0;1,0;column;1,0;False;True;True;1,29999995232;False;1,16199994087
KTS1993w;experiment;2017-03-16-08-58-15;11,0;31,0;100;2,0;3,0;0,0;1,0;row;1,0;True;True;False;1,0;False;0,862999916077
KTS1993w;experiment;2017-03-16-08-58-15;11,0;32,0;100;1,0;3,0;0,0;2,0;column;0,0;True;False;False;1,03299999237;False;0,901999950409
KTS1993w;experiment;2017-03-16-08-58-15;11,0;33,0;100;1,0;0,0;3,0;2,0;column;0,0;True;True;True;0,766999959946;True;1,06699991226
KTS1993w;experiment;2017-03-16-08-58-15;11,0;34,0;100;0,0;1,0;3,0;2,0;row;1,0;False;True;False;0,832999944687;True;1,22699999809
KTS1993w;experiment;2017-03-16-08-58-15;11,0;35,0;100;3,0;0,0;1,0;2,0;column;1,0;True;True;True;1,4350001812;True;0,661999940872
KTS1993w;experiment;2017-03-16-08-58-15;11,0;36,0;100;1,0;2,0;3,0;0,0;row;0,0;True;False;True;1,09999990463;True;0,928999900818
KTS1993w;experiment;2017-03-16-08-58-15;11,0;37,0;100;2,0;1,0;0,0;3,0;column;0,0;False;False;True;1,73300004005;False;0,996999979019
KTS1993w;experiment;2017-03-16-08-58-15;11,0;38,0;100;2,0;3,0;1,0;0,0;row;1,0;True;False;False;1,33100008965;False;1,03600001335
KTS1993w;experiment;2017-03-16-08-58-15;11,0;39,0;100;0,0;1,0;2,0;3,0;column;0,0;False;False;True;1,132999897;False;0,633999824524
KTS1993w;experiment;2017-03-16-08-58-15;11,0;40,0;100;1,0;3,0;2,0;0,0;column;1,0;False;False;False;0,933000087738;True;0,52999997139
KTS1993w;experiment;2017-03-16-08-58-15;11,0;41,0;100;1,0;3,0;0,0;2,0;row;0,0;False;True;False;1,10000014305;True;0,703999996185
KTS1993w;experiment;2017-03-16-08-58-15;11,0;42,0;100;3,0;1,0;0,0;2,0;column;1,0;False;True;False;1,43400001526;True;0,766999959946
KTS1993w;experiment;2017-03-16-08-58-15;11,0;43,0;100;3,0;1,0;0,0;2,0;column;0,0;True;False;True;1,83500003815;True;0,535000085831
KTS1993w;experiment;2017-03-16-08-58-15;11,0;44,0;100;3,0;2,0;1,0;0,0;column;0,0;True;False;False;1,0;False;1,46099996567
KTS1993w;experiment;2017-03-16-08-58-15;11,0;45,0;100;1,0;3,0;0,0;2,0;column;0,0;False;True;True;0,732999801636;False;1,36299991608
KTS1993w;experiment;2017-03-16-08-58-15;11,0;46,0;100;0,0;3,0;1,0;2,0;row;1,0;False;True;False;0,766999959946;True;1,0039999485
KTS1993w;experiment;2017-03-16-08-58-15;11,0;47,0;100;2,0;0,0;3,0;1,0;row;1,0;True;False;True;0,932999849319;True;0,628000020981
KTS1993w;experiment;2017-03-16-08-58-15;11,0;48,0;100;3,0;0,0;2,0;1,0;row;1,0;False;True;False;0,934000015259;True;1,29799985886
KTS1993w;experiment;2017-03-16-08-58-15;12,0;1,0;1000;1,0;0,0;3,0;2,0;column;1,0;True;False;True;0,766999959946;True;0,737000226974
KTS1993w;experiment;2017-03-16-08-58-15;12,0;2,0;1000;2,0;0,0;3,0;1,0;row;1,0;False;True;False;1,33300018311;True;0,671000003815
KTS1993w;experiment;2017-03-16-08-58-15;12,0;3,0;1000;3,0;1,0;2,0;0,0;column;1,0;False;True;False;1,43400001526;True;0,867000102997
KTS1993w;experiment;2017-03-16-08-58-15;12,0;4,0;1000;2,0;0,0;3,0;1,0;row;0,0;True;False;True;2,43400001526;True;1,09800004959
KTS1993w;experiment;2017-03-16-08-58-15;12,0;5,0;1000;1,0;2,0;0,0;3,0;row;1,0;False;False;False;5,13400006294;True;0,700000047684
KTS1993w;experiment;2017-03-16-08-58-15;12,0;6,0;1000;3,0;0,0;2,0;1,0;row;0,0;True;False;True;2,29999995232;True;0,668999910355
KTS1993w;experiment;2017-03-16-08-58-15;12,0;7,0;1000;0,0;2,0;1,0;3,0;column;1,0;False;False;False;1,83200001717;True;1,1289999485
KTS1993w;experiment;2017-03-16-08-58-15;12,0;8,0;1000;1,0;2,0;0,0;3,0;column;0,0;True;False;True;2,73100018501;True;1,39300012589
KTS1993w;experiment;2017-03-16-08-58-15;12,0;9,0;1000;1,0;3,0;0,0;2,0;row;1,0;False;False;True;2,86500000954;False;1,12700009346
KTS1993w;experiment;2017-03-16-08-58-15;12,0;10,0;1000;1,0;0,0;3,0;2,0;row;1,0;False;False;False;2,16500020027;True;1,23600006104
KTS1993w;experiment;2017-03-16-08-58-15;12,0;11,0;1000;1,0;0,0;3,0;2,0;column;1,0;False;True;False;0,800000190735;True;1,4399998188
KTS1993w;experiment;2017-03-16-08-58-15;12,0;12,0;1000;0,0;1,0;3,0;2,0;row;0,0;False;False;False;0,667000055313;True;1,06100010872
KTS1993w;experiment;2017-03-16-08-58-15;12,0;13,0;1000;0,0;1,0;2,0;3,0;row;1,0;True;False;True;0,900000095367;True;1,42900013924
KTS1993w;experiment;2017-03-16-08-58-15;12,0;14,0;1000;1,0;0,0;3,0;2,0;column;0,0;True;True;False;1,03299999237;False;1,12800002098
KTS1993w;experiment;2017-03-16-08-58-15;12,0;15,0;1000;0,0;3,0;2,0;1,0;row;0,0;True;False;True;1,03299999237;True;0,561000108719
KTS1993w;experiment;2017-03-16-08-58-15;12,0;16,0;1000;2,0;0,0;1,0;3,0;row;0,0;True;True;False;1,23300004005;False;0,636000156403
KTS1993w;experiment;2017-03-16-08-58-15;12,0;17,0;1000;3,0;1,0;2,0;0,0;column;1,0;True;True;True;0,566999912262;True;1,12999987602
KTS1993w;experiment;2017-03-16-08-58-15;12,0;18,0;1000;2,0;1,0;3,0;0,0;column;1,0;False;False;True;0,867000102997;False;0,605000019073
KTS1993w;experiment;2017-03-16-08-58-15;12,0;19,0;1000;2,0;3,0;1,0;0,0;column;0,0;False;False;True;0,865999937057;False;0,660000085831
KTS1993w;experiment;2017-03-16-08-58-15;12,0;20,0;1000;0,0;1,0;2,0;3,0;column;0,0;False;True;False;0,766000032425;True;1,02900004387
KTS1993w;experiment;2017-03-16-08-58-15;12,0;21,0;1000;2,0;0,0;1,0;3,0;column;1,0;False;False;True;1,56599998474;False;1,3710000515
KTS1993w;experiment;2017-03-16-08-58-15;12,0;22,0;1000;2,0;1,0;3,0;0,0;row;1,0;False;False;True;1,06699991226;False;0,807000160217
KTS1993w;experiment;2017-03-16-08-58-15;12,0;23,0;1000;3,0;0,0;1,0;2,0;row;0,0;False;True;False;1,43299984932;True;1,1970000267
KTS1993w;experiment;2017-03-16-08-58-15;12,0;24,0;1000;3,0;0,0;2,0;1,0;column;0,0;False;False;False;1,50099992752;True;1,06100010872
KTS1993w;experiment;2017-03-16-08-58-15;12,0;25,0;1000;3,0;2,0;0,0;1,0;row;1,0;False;False;False;1,49899983406;True;1,10099983215
KTS1993w;experiment;2017-03-16-08-58-15;12,0;26,0;1000;3,0;2,0;1,0;0,0;column;1,0;True;False;False;1,26700019836;False;1,16799998283
KTS1993w;experiment;2017-03-16-08-58-15;12,0;27,0;1000;2,0;3,0;0,0;1,0;column;0,0;True;True;True;0,066999912262;True;1,0680000782
KTS1993w;experiment;2017-03-16-08-58-15;12,0;28,0;1000;2,0;1,0;3,0;0,0;column;1,0;True;False;True;0,865999937057;True;1,13800001144
KTS1993w;experiment;2017-03-16-08-58-15;12,0;29,0;1000;1,0;3,0;0,0;2,0;row;0,0;True;True;False;0,667000055313;False;0,635999917984
KTS1993w;experiment;2017-03-16-08-58-15;12,0;30,0;1000;3,0;2,0;1,0;0,0;column;1,0;False;False;False;1,33299994469;True;0,892000198364
KTS1993w;experiment;2017-03-16-08-58-15;12,0;31,0;1000;2,0;1,0;0,0;3,0;column;1,0;True;False;False;1,23299980164;False;1,33599996567
KTS1993w;experiment;2017-03-16-08-58-15;12,0;32,0;1000;3,0;0,0;1,0;2,0;column;0,0;True;False;True;1,03399991989;True;0,661000013351
KTS1993w;experiment;2017-03-16-08-58-15;12,0;33,0;1000;2,0;3,0;1,0;0,0;row;0,0;True;True;False;1,59999990463;False;1,23600006104
KTS1993w;experiment;2017-03-16-08-58-15;12,0;34,0;1000;0,0;1,0;2,0;3,0;column;1,0;False;True;False;0,868000030518;True;0,526999950409
KTS1993w;experiment;2017-03-16-08-58-15;12,0;35,0;1000;1,0;3,0;2,0;0,0;column;0,0;False;True;False;1,20000004768;True;1,16100001335
KTS1993w;experiment;2017-03-16-08-58-15;12,0;36,0;1000;0,0;1,0;3,0;2,0;row;1,0;False;False;True;0,53400015831;False;1,36299991608
KTS1993w;experiment;2017-03-16-08-58-15;12,0;37,0;1000;2,0;1,0;0,0;3,0;row;0,0;False;True;True;0,667000055313;False;1,13400006294
KTS1993w;experiment;2017-03-16-08-58-15;12,0;38,0;1000;1,0;2,0;0,0;3,0;row;0,0;False;True;False;1,5;True;0,664999961853
KTS1993w;experiment;2017-03-16-08-58-15;12,0;39,0;1000;1,0;0,0;3,0;2,0;row;0,0;True;False;False;0,5;False;1,39800000191
KTS1993w;experiment;2017-03-16-08-58-15;12,0;40,0;1000;1,0;2,0;3,0;0,0;row;1,0;True;False;True;0,833000183105;True;0,671999931335
KTS1993w;experiment;2017-03-16-08-58-15;12,0;41,0;1000;0,0;3,0;1,0;2,0;row;0,0;True;True;True;0,700000047684;True;1,33799982071
KTS1993w;experiment;2017-03-16-08-58-15;12,0;42,0;1000;0,0;2,0;1,0;3,0;column;1,0;True;False;False;0,467000007629;False;0,895999908447
KTS1993w;experiment;2017-03-16-08-58-15;12,0;43,0;1000;2,0;0,0;1,0;3,0;column;1,0;True;True;True;0,600000143051;True;0,927999973297
KTS1993w;experiment;2017-03-16-08-58-15;12,0;44,0;1000;3,0;1,0;2,0;0,0;column;0,0;True;True;True;0,798999786377;True;0,996999979019
KTS1993w;experiment;2017-03-16-08-58-15;12,0;45,0;1000;1,0;3,0;2,0;0,0;column;1,0;False;True;False;0,733000040054;True;1,09599995613
KTS1993w;experiment;2017-03-16-08-58-15;12,0;46,0;1000;2,0;3,0;1,0;0,0;column;0,0;True;True;True;1,16600012779;True;1,06700015068
KTS1993w;experiment;2017-03-16-08-58-15;12,0;47,0;1000;1,0;3,0;2,0;0,0;row;0,0;True;True;False;0,533999919891;False;0,931999921799
KTS1993w;experiment;2017-03-16-08-58-15;12,0;48,0;1000;2,0;0,0;3,0;1,0;column;1,0;False;False;True;0,699999809265;False;0,796999931335
