Observer;Condition;SessionID;Block;Trial;COA;Color0;Color1;Color2;Color3;Target;Which;Match;FlipComplimentary;Response;RT;Correct;OnsetDelay
MMM1993w;game;2017-05-04-14-00-44;1,0;1,0;-100;0,0;1,0;2,0;3,0;row;0,0;False;True;True;3,71500015259;False;1,26999998093
MMM1993w;game;2017-05-04-14-00-44;1,0;2,0;-100;2,0;3,0;1,0;0,0;column;1,0;True;True;True;2,58299994469;True;1,46600008011
MMM1993w;game;2017-05-04-14-00-44;1,0;3,0;-100;0,0;3,0;2,0;1,0;row;1,0;True;False;False;1,6819999218;False;0,866999864578
MMM1993w;game;2017-05-04-14-00-44;1,0;4,0;-100;0,0;2,0;1,0;3,0;column;0,0;False;True;True;2,34800004959;False;1,49500012398
MMM1993w;game;2017-05-04-14-00-44;1,0;5,0;-100;2,0;3,0;1,0;0,0;row;1,0;True;False;False;3,04699993134;False;1,492000103
MMM1993w;game;2017-05-04-14-00-44;1,0;6,0;-100;0,0;2,0;3,0;1,0;row;1,0;False;False;True;2,68300008774;False;0,523999929428
MMM1993w;game;2017-05-04-14-00-44;1,0;7,0;-100;1,0;0,0;3,0;2,0;column;1,0;True;True;True;3,5150001049;True;1,53100013733
MMM1993w;game;2017-05-04-14-00-44;1,0;8,0;-100;1,0;3,0;0,0;2,0;column;1,0;False;False;True;2,617000103;False;0,694999933243
MMM1993w;game;2017-05-04-14-00-44;1,0;9,0;-100;0,0;2,0;1,0;3,0;column;0,0;True;False;False;4,21700000763;False;1,19899988174
MMM1993w;game;2017-05-04-14-00-44;1,0;10,0;-100;3,0;2,0;0,0;1,0;row;1,0;True;False;True;3,94900012016;True;1,05800008774
MMM1993w;game;2017-05-04-14-00-44;1,0;11,0;-100;3,0;0,0;2,0;1,0;row;0,0;False;True;False;2,78299999237;True;0,763000011444
MMM1993w;game;2017-05-04-14-00-44;1,0;12,0;-100;0,0;3,0;2,0;1,0;row;0,0;True;True;True;2,18400001526;True;1,46799993515
MMM1993w;game;2017-05-04-14-00-44;1,0;13,0;-100;1,0;2,0;0,0;3,0;column;1,0;False;True;False;2,94900012016;True;0,661000013351
MMM1993w;game;2017-05-04-14-00-44;1,0;14,0;-100;0,0;1,0;2,0;3,0;row;1,0;False;False;False;2,54999995232;True;1,25899982452
MMM1993w;game;2017-05-04-14-00-44;1,0;15,0;-100;3,0;0,0;2,0;1,0;column;0,0;True;True;True;2,91700005531;True;0,901999950409
MMM1993w;game;2017-05-04-14-00-44;1,0;16,0;-100;1,0;3,0;2,0;0,0;column;0,0;True;False;True;2,51699995995;True;0,793999910355
MMM1993w;game;2017-05-04-14-00-44;1,0;17,0;-100;1,0;0,0;3,0;2,0;row;1,0;False;True;False;2,38399982452;True;1,23600006104
MMM1993w;game;2017-05-04-14-00-44;1,0;18,0;-100;2,0;1,0;0,0;3,0;column;0,0;False;True;False;1,94900012016;True;1,3029999733
MMM1993w;game;2017-05-04-14-00-44;1,0;19,0;-100;2,0;1,0;3,0;0,0;row;1,0;True;True;True;2,08500003815;True;1,0039999485
MMM1993w;game;2017-05-04-14-00-44;1,0;20,0;-100;2,0;1,0;0,0;3,0;row;1,0;True;False;True;2,41499996185;True;0,833999872208
MMM1993w;game;2017-05-04-14-00-44;1,0;21,0;-100;0,0;3,0;1,0;2,0;column;0,0;False;True;False;1,98299980164;True;0,733000040054
MMM1993w;game;2017-05-04-14-00-44;1,0;22,0;-100;0,0;3,0;2,0;1,0;column;1,0;False;True;False;2,38199996948;True;1,29999995232
MMM1993w;game;2017-05-04-14-00-44;1,0;23,0;-100;3,0;1,0;0,0;2,0;row;0,0;True;True;True;2,4509999752;True;1,16299986839
MMM1993w;game;2017-05-04-14-00-44;1,0;24,0;-100;1,0;3,0;2,0;0,0;column;1,0;True;False;True;2,18000006676;True;0,630999803543
MMM1993w;game;2017-05-04-14-00-44;1,0;25,0;-100;3,0;2,0;1,0;0,0;row;1,0;True;True;True;2,08299994469;True;1,23300004005
MMM1993w;game;2017-05-04-14-00-44;1,0;26,0;-100;0,0;1,0;3,0;2,0;row;1,0;False;False;False;2,0490000248;True;0,802000045776
MMM1993w;game;2017-05-04-14-00-44;1,0;27,0;-100;3,0;2,0;0,0;1,0;column;0,0;True;True;True;2,95000004768;True;1,03800010681
MMM1993w;game;2017-05-04-14-00-44;1,0;28,0;-100;0,0;3,0;2,0;1,0;row;1,0;False;True;False;3,24799990654;True;1,12600016594
MMM1993w;game;2017-05-04-14-00-44;1,0;29,0;-100;1,0;0,0;2,0;3,0;column;0,0;True;True;True;4,34999990463;True;0,795000076294
MMM1993w;game;2017-05-04-14-00-44;1,0;30,0;-100;1,0;0,0;2,0;3,0;column;1,0;True;True;True;2,48399996758;True;1,4960000515
MMM1993w;game;2017-05-04-14-00-44;1,0;31,0;-100;1,0;0,0;3,0;2,0;row;0,0;True;False;True;2,81700015068;True;0,802999973297
MMM1993w;game;2017-05-04-14-00-44;1,0;32,0;-100;3,0;0,0;2,0;1,0;column;0,0;False;True;False;2,25;True;0,670000076294
MMM1993w;game;2017-05-04-14-00-44;1,0;33,0;-100;2,0;1,0;0,0;3,0;row;1,0;False;True;False;2,08399987221;True;1,13199996948
MMM1993w;game;2017-05-04-14-00-44;1,0;34,0;-100;0,0;3,0;2,0;1,0;column;0,0;False;False;False;4,4509999752;True;0,967000007629
MMM1993w;game;2017-05-04-14-00-44;1,0;35,0;-100;0,0;1,0;3,0;2,0;row;1,0;True;False;True;2,11599993706;True;1,40100002289
MMM1993w;game;2017-05-04-14-00-44;1,0;36,0;-100;1,0;0,0;2,0;3,0;column;1,0;False;True;False;2,31599998474;True;0,898000001907
MMM1993w;game;2017-05-04-14-00-44;1,0;37,0;-100;1,0;2,0;0,0;3,0;column;0,0;True;True;True;2,08500003815;True;1,0569999218
MMM1993w;game;2017-05-04-14-00-44;1,0;38,0;-100;0,0;2,0;1,0;3,0;column;1,0;False;True;False;3,01699995995;True;1,36000013351
MMM1993w;game;2017-05-04-14-00-44;1,0;39,0;-100;3,0;1,0;0,0;2,0;column;1,0;True;True;True;1,14899992943;True;0,878999948502
MMM1993w;game;2017-05-04-14-00-44;1,0;40,0;-100;3,0;0,0;2,0;1,0;column;1,0;False;True;False;1,78399991989;True;1,06399989128
MMM1993w;game;2017-05-04-14-00-44;1,0;41,0;-100;2,0;3,0;0,0;1,0;row;1,0;True;False;True;1,71700000763;True;0,532999992371
MMM1993w;game;2017-05-04-14-00-44;1,0;42,0;-100;1,0;2,0;3,0;0,0;column;1,0;False;True;False;1,75;True;0,634999990463
MMM1993w;game;2017-05-04-14-00-44;1,0;43,0;-100;2,0;0,0;3,0;1,0;column;1,0;False;False;False;2,14999985695;True;0,660999774933
MMM1993w;game;2017-05-04-14-00-44;1,0;44,0;-100;2,0;3,0;1,0;0,0;column;1,0;False;True;False;1,78399991989;True;0,664000034332
MMM1993w;game;2017-05-04-14-00-44;1,0;45,0;-100;0,0;1,0;2,0;3,0;column;1,0;True;False;True;1,51699995995;True;0,97200012207
MMM1993w;game;2017-05-04-14-00-44;1,0;46,0;-100;2,0;1,0;0,0;3,0;row;0,0;False;True;False;2,38400006294;True;0,664000034332
MMM1993w;game;2017-05-04-14-00-44;1,0;47,0;-100;3,0;0,0;1,0;2,0;column;0,0;False;False;False;2,34700012207;True;1,19599986076
MMM1993w;game;2017-05-04-14-00-44;1,0;48,0;-100;3,0;1,0;2,0;0,0;column;0,0;True;True;True;2,28399991989;True;1,33099985123
MMM1993w;game;2017-05-04-14-00-44;2,0;1,0;100;0,0;1,0;2,0;3,0;row;0,0;False;True;True;1,43400001526;False;1,17999982834
MMM1993w;game;2017-05-04-14-00-44;2,0;2,0;100;0,0;2,0;3,0;1,0;row;1,0;True;True;True;2,26600003242;True;1,06299996376
MMM1993w;game;2017-05-04-14-00-44;2,0;3,0;100;1,0;3,0;2,0;0,0;row;0,0;False;False;True;2,66400003433;False;1,29600000381
MMM1993w;game;2017-05-04-14-00-44;2,0;4,0;100;2,0;3,0;1,0;0,0;row;0,0;False;False;True;2,59999990463;False;1,13199996948
MMM1993w;game;2017-05-04-14-00-44;2,0;5,0;100;2,0;0,0;3,0;1,0;column;1,0;False;True;False;2,39999985695;True;0,898000001907
MMM1993w;game;2017-05-04-14-00-44;2,0;6,0;100;1,0;0,0;2,0;3,0;column;0,0;True;True;True;1,59999990463;True;1,0600001812
MMM1993w;game;2017-05-04-14-00-44;2,0;7,0;100;1,0;2,0;3,0;0,0;column;0,0;True;True;True;2,66700005531;True;1,03799986839
MMM1993w;game;2017-05-04-14-00-44;2,0;8,0;100;2,0;1,0;3,0;0,0;row;0,0;False;False;False;1,89999985695;True;0,729999780655
MMM1993w;game;2017-05-04-14-00-44;2,0;9,0;100;2,0;1,0;3,0;0,0;row;0,0;True;False;True;1,96700000763;True;1,36199998856
MMM1993w;game;2017-05-04-14-00-44;2,0;10,0;100;2,0;3,0;1,0;0,0;column;0,0;True;True;True;1,33500003815;True;1,28699994087
MMM1993w;game;2017-05-04-14-00-44;2,0;11,0;100;0,0;3,0;2,0;1,0;column;1,0;False;True;False;1,93299984932;True;1,2650001049
MMM1993w;game;2017-05-04-14-00-44;2,0;12,0;100;0,0;3,0;1,0;2,0;column;1,0;False;False;False;2,29999995232;True;1,22499990463
MMM1993w;game;2017-05-04-14-00-44;2,0;13,0;100;2,0;3,0;1,0;0,0;column;1,0;False;False;True;2,09700012207;False;1,13000011444
MMM1993w;game;2017-05-04-14-00-44;2,0;14,0;100;1,0;0,0;2,0;3,0;column;0,0;False;False;False;1,26699995995;True;1,02999997139
MMM1993w;game;2017-05-04-14-00-44;2,0;15,0;100;3,0;1,0;2,0;0,0;column;0,0;True;True;True;1,09999990463;True;0,901000022888
MMM1993w;game;2017-05-04-14-00-44;2,0;16,0;100;0,0;1,0;3,0;2,0;column;0,0;False;False;False;1,0;True;0,833999872208
MMM1993w;game;2017-05-04-14-00-44;2,0;17,0;100;0,0;3,0;1,0;2,0;row;0,0;True;False;True;1,73300004005;True;1,29999995232
MMM1993w;game;2017-05-04-14-00-44;2,0;18,0;100;3,0;0,0;1,0;2,0;column;1,0;True;True;True;1,96600008011;True;0,68799996376
MMM1993w;game;2017-05-04-14-00-44;2,0;19,0;100;3,0;0,0;1,0;2,0;row;0,0;True;False;True;1,30000019073;True;1,09899997711
MMM1993w;game;2017-05-04-14-00-44;2,0;20,0;100;0,0;3,0;2,0;1,0;column;0,0;False;False;False;2,36599993706;True;0,600999832153
MMM1993w;game;2017-05-04-14-00-44;2,0;21,0;100;1,0;2,0;3,0;0,0;column;1,0;False;False;False;2,40000009537;True;0,927000045776
MMM1993w;game;2017-05-04-14-00-44;2,0;22,0;100;1,0;3,0;2,0;0,0;row;0,0;True;True;True;1,69900012016;True;1,46199989319
MMM1993w;game;2017-05-04-14-00-44;2,0;23,0;100;2,0;0,0;3,0;1,0;column;1,0;True;True;False;1,93300008774;False;0,655999898911
MMM1993w;game;2017-05-04-14-00-44;2,0;24,0;100;3,0;1,0;2,0;0,0;row;1,0;False;False;False;2,4350001812;True;0,600000143051
MMM1993w;game;2017-05-04-14-00-44;2,0;25,0;100;1,0;2,0;0,0;3,0;column;0,0;False;False;False;2,26700019836;True;1,16899991035
MMM1993w;game;2017-05-04-14-00-44;2,0;26,0;100;0,0;3,0;1,0;2,0;column;1,0;True;False;True;1,86699986458;True;0,855999946594
MMM1993w;game;2017-05-04-14-00-44;2,0;27,0;100;0,0;2,0;1,0;3,0;row;0,0;True;True;True;1,13400006294;True;1,33800005913
MMM1993w;game;2017-05-04-14-00-44;2,0;28,0;100;3,0;1,0;0,0;2,0;row;1,0;True;True;False;1,93300008774;False;0,631999969482
MMM1993w;game;2017-05-04-14-00-44;2,0;29,0;100;2,0;1,0;0,0;3,0;row;0,0;True;False;True;1,09899997711;True;1,12599992752
MMM1993w;game;2017-05-04-14-00-44;2,0;30,0;100;3,0;0,0;2,0;1,0;row;0,0;True;False;False;1,46700000763;False;0,664999961853
MMM1993w;game;2017-05-04-14-00-44;2,0;31,0;100;0,0;2,0;1,0;3,0;column;0,0;False;True;False;2,20000004768;True;0,697999954224
MMM1993w;game;2017-05-04-14-00-44;2,0;32,0;100;1,0;3,0;0,0;2,0;column;1,0;False;False;False;2,367000103;True;0,964999914169
MMM1993w;game;2017-05-04-14-00-44;2,0;33,0;100;0,0;1,0;2,0;3,0;row;0,0;True;True;True;1,23300004005;True;0,557999849319
MMM1993w;game;2017-05-04-14-00-44;2,0;34,0;100;3,0;0,0;2,0;1,0;column;0,0;False;True;False;1,83299994469;True;1,22300004959
MMM1993w;game;2017-05-04-14-00-44;2,0;35,0;100;3,0;1,0;0,0;2,0;row;0,0;False;True;False;1,23399996758;True;1,39499998093
MMM1993w;game;2017-05-04-14-00-44;2,0;36,0;100;3,0;2,0;1,0;0,0;row;0,0;False;False;False;2,26699995995;True;0,871999979019
MMM1993w;game;2017-05-04-14-00-44;2,0;37,0;100;3,0;1,0;0,0;2,0;row;1,0;False;True;False;1,867000103;True;1,0
MMM1993w;game;2017-05-04-14-00-44;2,0;38,0;100;1,0;0,0;3,0;2,0;row;0,0;False;False;False;2,36699986458;True;1,02300000191
MMM1993w;game;2017-05-04-14-00-44;2,0;39,0;100;2,0;1,0;0,0;3,0;row;1,0;True;True;True;2,16699981689;True;0,966000080109
MMM1993w;game;2017-05-04-14-00-44;2,0;40,0;100;1,0;2,0;0,0;3,0;row;1,0;True;True;False;2,29999995232;False;0,830999851227
MMM1993w;game;2017-05-04-14-00-44;2,0;41,0;100;2,0;3,0;1,0;0,0;column;1,0;True;True;False;2,10000014305;False;0,590000152588
MMM1993w;game;2017-05-04-14-00-44;2,0;42,0;100;2,0;1,0;0,0;3,0;column;1,0;True;True;False;1,89999985695;False;0,72200012207
MMM1993w;game;2017-05-04-14-00-44;2,0;43,0;100;2,0;0,0;3,0;1,0;row;1,0;False;True;False;2,29999995232;True;1,16799998283
MMM1993w;game;2017-05-04-14-00-44;2,0;44,0;100;1,0;0,0;2,0;3,0;row;0,0;False;False;False;2,03399991989;True;1,02699995041
MMM1993w;game;2017-05-04-14-00-44;2,0;45,0;100;0,0;2,0;3,0;1,0;column;1,0;False;False;False;2,10100007057;True;1,33599996567
MMM1993w;game;2017-05-04-14-00-44;2,0;46,0;100;3,0;2,0;0,0;1,0;column;1,0;True;False;False;1,40000009537;False;1,12599992752
MMM1993w;game;2017-05-04-14-00-44;2,0;47,0;100;1,0;2,0;0,0;3,0;row;0,0;True;False;True;1,367000103;True;1,39900016785
MMM1993w;game;2017-05-04-14-00-44;2,0;48,0;100;0,0;3,0;2,0;1,0;row;0,0;False;True;False;1,43400001526;True;1,16400003433
MMM1993w;game;2017-05-04-14-00-44;3,0;1,0;1000;0,0;1,0;2,0;3,0;column;1,0;False;False;False;1,76699995995;True;0,838999986649
MMM1993w;game;2017-05-04-14-00-44;3,0;2,0;1000;2,0;1,0;3,0;0,0;column;0,0;True;True;True;3,06599998474;True;1,36500000954
MMM1993w;game;2017-05-04-14-00-44;3,0;3,0;1000;1,0;2,0;3,0;0,0;column;1,0;False;True;False;1,73399996758;True;1,46799993515
MMM1993w;game;2017-05-04-14-00-44;3,0;4,0;1000;1,0;3,0;2,0;0,0;row;0,0;False;True;False;1,13300013542;True;0,702000141144
MMM1993w;game;2017-05-04-14-00-44;3,0;5,0;1000;2,0;3,0;0,0;1,0;row;0,0;False;False;False;2,93300008774;True;0,831000089645
MMM1993w;game;2017-05-04-14-00-44;3,0;6,0;1000;3,0;0,0;1,0;2,0;column;1,0;True;False;True;1,66600012779;True;0,621999979019
MMM1993w;game;2017-05-04-14-00-44;3,0;7,0;1000;0,0;2,0;3,0;1,0;row;1,0;False;True;False;1,867000103;True;0,825000047684
MMM1993w;game;2017-05-04-14-00-44;3,0;8,0;1000;1,0;0,0;3,0;2,0;column;1,0;False;True;False;2,36599993706;True;1,17000007629
MMM1993w;game;2017-05-04-14-00-44;3,0;9,0;1000;1,0;0,0;2,0;3,0;row;1,0;False;True;False;3,33500003815;True;1,06900000572
MMM1993w;game;2017-05-04-14-00-44;3,0;10,0;1000;1,0;2,0;0,0;3,0;row;1,0;False;True;False;2,03399991989;True;1,22799992561
MMM1993w;game;2017-05-04-14-00-44;3,0;11,0;1000;3,0;0,0;2,0;1,0;column;0,0;True;True;False;2,39999985695;False;1,43299984932
MMM1993w;game;2017-05-04-14-00-44;3,0;12,0;1000;0,0;2,0;3,0;1,0;column;1,0;True;True;True;2,83200001717;True;1,35600018501
MMM1993w;game;2017-05-04-14-00-44;3,0;13,0;1000;3,0;2,0;1,0;0,0;row;1,0;False;True;False;1,66700005531;True;1,03299999237
MMM1993w;game;2017-05-04-14-00-44;3,0;14,0;1000;3,0;1,0;2,0;0,0;row;1,0;True;False;False;1,53399991989;False;0,569999933243
MMM1993w;game;2017-05-04-14-00-44;3,0;15,0;1000;0,0;1,0;3,0;2,0;column;1,0;False;False;False;2,26600003242;True;0,691999912262
MMM1993w;game;2017-05-04-14-00-44;3,0;16,0;1000;1,0;2,0;3,0;0,0;column;0,0;False;True;False;2,46500015259;True;0,963999986649
MMM1993w;game;2017-05-04-14-00-44;3,0;17,0;1000;3,0;0,0;2,0;1,0;row;0,0;False;True;False;2,23300004005;True;0,899999856949
MMM1993w;game;2017-05-04-14-00-44;3,0;18,0;1000;1,0;2,0;3,0;0,0;row;1,0;False;False;True;1,89999985695;False;0,803999900818
MMM1993w;game;2017-05-04-14-00-44;3,0;19,0;1000;0,0;2,0;1,0;3,0;column;1,0;False;False;False;2,5;True;0,59600019455
MMM1993w;game;2017-05-04-14-00-44;3,0;20,0;1000;2,0;0,0;1,0;3,0;column;1,0;False;False;False;1,23399996758;True;1,26599979401
MMM1993w;game;2017-05-04-14-00-44;3,0;21,0;1000;0,0;3,0;2,0;1,0;column;0,0;True;True;False;2,43300008774;False;1,43299984932
MMM1993w;game;2017-05-04-14-00-44;3,0;22,0;1000;3,0;0,0;1,0;2,0;column;1,0;False;False;False;3,0;True;1,2990000248
MMM1993w;game;2017-05-04-14-00-44;3,0;23,0;1000;1,0;3,0;0,0;2,0;column;0,0;False;False;False;1,96700000763;True;1,36599993706
MMM1993w;game;2017-05-04-14-00-44;3,0;24,0;1000;0,0;3,0;2,0;1,0;row;1,0;False;False;False;2,73300004005;True;1,5
MMM1993w;game;2017-05-04-14-00-44;3,0;25,0;1000;1,0;2,0;0,0;3,0;column;0,0;True;False;True;2,7650001049;True;0,567000150681
MMM1993w;game;2017-05-04-14-00-44;3,0;26,0;1000;3,0;2,0;0,0;1,0;row;0,0;True;True;True;1,33299994469;True;1,00099992752
MMM1993w;game;2017-05-04-14-00-44;3,0;27,0;1000;2,0;1,0;0,0;3,0;row;1,0;False;True;False;1,79999995232;True;0,565999984741
MMM1993w;game;2017-05-04-14-00-44;3,0;28,0;1000;0,0;3,0;2,0;1,0;column;0,0;False;False;False;2,0;True;1,09200000763
MMM1993w;game;2017-05-04-14-00-44;3,0;29,0;1000;2,0;1,0;0,0;3,0;column;1,0;True;False;True;2,36599993706;True;0,895999908447
MMM1993w;game;2017-05-04-14-00-44;3,0;30,0;1000;2,0;1,0;0,0;3,0;column;1,0;False;True;False;3,06599998474;True;0,565999984741
MMM1993w;game;2017-05-04-14-00-44;3,0;31,0;1000;2,0;3,0;1,0;0,0;row;1,0;False;True;False;2,16700005531;True;0,707999944687
MMM1993w;game;2017-05-04-14-00-44;3,0;32,0;1000;2,0;1,0;3,0;0,0;column;1,0;False;True;False;2,03299999237;True;1,39599990845
MMM1993w;game;2017-05-04-14-00-44;3,0;33,0;1000;1,0;2,0;0,0;3,0;column;1,0;True;False;True;1,73300004005;True;0,723000049591
MMM1993w;game;2017-05-04-14-00-44;3,0;34,0;1000;3,0;0,0;1,0;2,0;column;0,0;False;False;False;1,83299994469;True;0,868000030518
MMM1993w;game;2017-05-04-14-00-44;3,0;35,0;1000;0,0;3,0;2,0;1,0;row;0,0;True;False;True;1,83200001717;True;1,19299983978
MMM1993w;game;2017-05-04-14-00-44;3,0;36,0;1000;2,0;3,0;0,0;1,0;column;1,0;False;True;False;2,33400011063;True;0,921000003815
MMM1993w;game;2017-05-04-14-00-44;3,0;37,0;1000;2,0;0,0;3,0;1,0;column;0,0;False;False;False;2,76699995995;True;1,15700006485
MMM1993w;game;2017-05-04-14-00-44;3,0;38,0;1000;3,0;1,0;0,0;2,0;row;1,0;False;False;False;2,867000103;True;0,602999925613
MMM1993w;game;2017-05-04-14-00-44;3,0;39,0;1000;2,0;0,0;3,0;1,0;column;1,0;False;False;False;1,46700000763;True;0,962000131607
MMM1993w;game;2017-05-04-14-00-44;3,0;40,0;1000;0,0;3,0;1,0;2,0;column;0,0;False;False;False;2,632999897;True;0,707000017166
MMM1993w;game;2017-05-04-14-00-44;3,0;41,0;1000;2,0;3,0;0,0;1,0;column;0,0;True;True;False;3,56699991226;False;0,56600022316
MMM1993w;game;2017-05-04-14-00-44;3,0;42,0;1000;0,0;3,0;1,0;2,0;row;1,0;True;False;False;1,82999992371;False;1,1970000267
MMM1993w;game;2017-05-04-14-00-44;3,0;43,0;1000;3,0;1,0;2,0;0,0;column;1,0;True;False;True;3,06699991226;True;0,830000162125
MMM1993w;game;2017-05-04-14-00-44;3,0;44,0;1000;0,0;1,0;2,0;3,0;row;1,0;True;True;True;2,66499996185;True;1,13400006294
MMM1993w;game;2017-05-04-14-00-44;3,0;45,0;1000;1,0;2,0;0,0;3,0;column;0,0;False;True;False;1,96600008011;True;1,49099993706
MMM1993w;game;2017-05-04-14-00-44;3,0;46,0;1000;0,0;2,0;1,0;3,0;row;1,0;False;False;False;1,66700005531;True;0,865000009537
MMM1993w;game;2017-05-04-14-00-44;3,0;47,0;1000;1,0;3,0;0,0;2,0;column;1,0;False;True;False;1,79999995232;True;1,29600000381
MMM1993w;game;2017-05-04-14-00-44;3,0;48,0;1000;0,0;2,0;1,0;3,0;row;0,0;False;True;False;1,7009999752;True;1,30100011826
MMM1993w;game;2017-05-04-14-00-44;4,0;1,0;100;0,0;2,0;3,0;1,0;column;0,0;False;True;False;2,26600003242;True;1,37900018692
MMM1993w;game;2017-05-04-14-00-44;4,0;2,0;100;1,0;2,0;3,0;0,0;row;1,0;True;False;False;1,83600020409;False;0,68799996376
MMM1993w;game;2017-05-04-14-00-44;4,0;3,0;100;1,0;3,0;0,0;2,0;row;0,0;False;True;False;2,132999897;True;1,40200018883
MMM1993w;game;2017-05-04-14-00-44;4,0;4,0;100;0,0;2,0;3,0;1,0;row;0,0;True;True;True;1,93300008774;True;1,10199999809
MMM1993w;game;2017-05-04-14-00-44;4,0;5,0;100;0,0;2,0;3,0;1,0;row;0,0;False;False;False;1,73300004005;True;0,828999996185
MMM1993w;game;2017-05-04-14-00-44;4,0;6,0;100;2,0;3,0;0,0;1,0;column;0,0;False;False;False;2,06699991226;True;0,565999984741
MMM1993w;game;2017-05-04-14-00-44;4,0;7,0;100;3,0;2,0;0,0;1,0;row;1,0;True;True;False;2,59999990463;False;0,588000059128
MMM1993w;game;2017-05-04-14-00-44;4,0;8,0;100;1,0;0,0;3,0;2,0;row;1,0;False;True;False;3,56700015068;True;1,39500021935
MMM1993w;game;2017-05-04-14-00-44;4,0;9,0;100;2,0;3,0;0,0;1,0;row;0,0;True;True;True;3,06699991226;True;1,36500000954
MMM1993w;game;2017-05-04-14-00-44;4,0;10,0;100;3,0;0,0;2,0;1,0;column;1,0;True;True;True;1,86699986458;True;0,726999998093
MMM1993w;game;2017-05-04-14-00-44;4,0;11,0;100;3,0;0,0;1,0;2,0;column;0,0;False;True;False;1,56699991226;True;0,796000003815
MMM1993w;game;2017-05-04-14-00-44;4,0;12,0;100;0,0;1,0;2,0;3,0;column;1,0;False;False;False;1,69999980927;True;0,729000091553
MMM1993w;game;2017-05-04-14-00-44;4,0;13,0;100;2,0;0,0;1,0;3,0;row;0,0;False;False;False;1,20000004768;True;0,832999944687
MMM1993w;game;2017-05-04-14-00-44;4,0;14,0;100;2,0;3,0;1,0;0,0;row;1,0;True;False;False;1,53399991989;False;1,367000103
MMM1993w;game;2017-05-04-14-00-44;4,0;15,0;100;1,0;0,0;2,0;3,0;row;0,0;True;True;True;1,16599988937;True;1,23000001907
MMM1993w;game;2017-05-04-14-00-44;4,0;16,0;100;1,0;3,0;0,0;2,0;column;0,0;True;False;True;1,5;True;1,40100002289
MMM1993w;game;2017-05-04-14-00-44;4,0;17,0;100;2,0;1,0;3,0;0,0;column;1,0;False;False;False;1,80000019073;True;0,59600019455
MMM1993w;game;2017-05-04-14-00-44;4,0;18,0;100;3,0;0,0;2,0;1,0;row;0,0;False;True;False;2,39799976349;True;0,736000061035
MMM1993w;game;2017-05-04-14-00-44;4,0;19,0;100;0,0;2,0;1,0;3,0;column;1,0;False;True;False;2,367000103;True;1,23000001907
MMM1993w;game;2017-05-04-14-00-44;4,0;20,0;100;0,0;1,0;2,0;3,0;row;1,0;False;False;False;1,93400001526;True;1,36800003052
MMM1993w;game;2017-05-04-14-00-44;4,0;21,0;100;0,0;2,0;1,0;3,0;row;1,0;False;False;False;2,36599993706;True;1,10299992561
MMM1993w;game;2017-05-04-14-00-44;4,0;22,0;100;1,0;2,0;0,0;3,0;row;1,0;False;False;False;2,76399993896;True;0,999000072479
MMM1993w;game;2017-05-04-14-00-44;4,0;23,0;100;3,0;1,0;2,0;0,0;column;1,0;True;False;True;1,46700000763;True;1,16700005531
MMM1993w;game;2017-05-04-14-00-44;4,0;24,0;100;0,0;3,0;2,0;1,0;column;0,0;True;False;True;1,86600017548;True;0,803000211716
MMM1993w;game;2017-05-04-14-00-44;4,0;25,0;100;2,0;3,0;0,0;1,0;row;0,0;False;False;False;1,46600008011;True;1,4319999218
MMM1993w;game;2017-05-04-14-00-44;4,0;26,0;100;0,0;3,0;1,0;2,0;row;1,0;True;True;True;1,5;True;0,698999881744
MMM1993w;game;2017-05-04-14-00-44;4,0;27,0;100;0,0;1,0;3,0;2,0;column;1,0;True;False;False;2,73399996758;False;0,555000066757
MMM1993w;game;2017-05-04-14-00-44;4,0;28,0;100;3,0;1,0;2,0;0,0;row;1,0;True;True;True;1,73399996758;True;0,871000051498
MMM1993w;game;2017-05-04-14-00-44;4,0;29,0;100;1,0;3,0;2,0;0,0;column;1,0;False;True;False;1,56500005722;True;0,501000165939
MMM1993w;game;2017-05-04-14-00-44;4,0;30,0;100;3,0;0,0;1,0;2,0;row;1,0;False;True;False;1,69899988174;True;1,13900017738
MMM1993w;game;2017-05-04-14-00-44;4,0;31,0;100;0,0;2,0;1,0;3,0;column;1,0;True;True;True;3,03500008583;True;1,16300010681
MMM1993w;game;2017-05-04-14-00-44;4,0;32,0;100;3,0;1,0;2,0;0,0;column;1,0;False;False;True;2,5;False;1,02999997139
MMM1993w;game;2017-05-04-14-00-44;4,0;33,0;100;0,0;2,0;1,0;3,0;row;1,0;True;False;False;2,46599984169;False;1,13000011444
MMM1993w;game;2017-05-04-14-00-44;4,0;34,0;100;3,0;0,0;1,0;2,0;column;0,0;True;True;True;2,80100011826;True;0,629999876022
MMM1993w;game;2017-05-04-14-00-44;4,0;35,0;100;1,0;0,0;3,0;2,0;row;1,0;True;False;True;1,96700000763;True;1,13199996948
MMM1993w;game;2017-05-04-14-00-44;4,0;36,0;100;3,0;0,0;1,0;2,0;row;0,0;False;False;True;2,632999897;False;0,936000108719
MMM1993w;game;2017-05-04-14-00-44;4,0;37,0;100;3,0;0,0;2,0;1,0;row;1,0;True;True;True;2,06699991226;True;0,588999986649
MMM1993w;game;2017-05-04-14-00-44;4,0;38,0;100;1,0;2,0;3,0;0,0;row;0,0;True;False;True;1,20000004768;True;0,865999937057
MMM1993w;game;2017-05-04-14-00-44;4,0;39,0;100;3,0;2,0;1,0;0,0;column;1,0;False;False;False;1,96600008011;True;1,36299991608
MMM1993w;game;2017-05-04-14-00-44;4,0;40,0;100;3,0;2,0;1,0;0,0;column;0,0;False;True;False;1,79999995232;True;0,601000070572
MMM1993w;game;2017-05-04-14-00-44;4,0;41,0;100;1,0;0,0;2,0;3,0;row;1,0;False;True;False;2,04200005531;True;1,16400003433
MMM1993w;game;2017-05-04-14-00-44;4,0;42,0;100;1,0;3,0;0,0;2,0;column;1,0;True;True;False;1,33299994469;False;1,06699991226
MMM1993w;game;2017-05-04-14-00-44;4,0;43,0;100;3,0;1,0;2,0;0,0;column;0,0;False;False;False;2,16700005531;True;1,26499986649
MMM1993w;game;2017-05-04-14-00-44;4,0;44,0;100;1,0;2,0;3,0;0,0;row;0,0;False;True;False;0,967000007629;True;1,22699999809
MMM1993w;game;2017-05-04-14-00-44;4,0;45,0;100;3,0;1,0;0,0;2,0;column;0,0;False;False;False;2,00099992752;True;1,03200006485
MMM1993w;game;2017-05-04-14-00-44;4,0;46,0;100;2,0;3,0;1,0;0,0;row;1,0;False;False;True;2,33299994469;False;1,26799988747
MMM1993w;game;2017-05-04-14-00-44;4,0;47,0;100;1,0;0,0;3,0;2,0;column;1,0;False;False;False;1,83299994469;True;1,2619998455
MMM1993w;game;2017-05-04-14-00-44;4,0;48,0;100;3,0;2,0;0,0;1,0;row;0,0;False;False;False;1,73300004005;True;0,892999887466
MMM1993w;game;2017-05-04-14-00-44;5,0;1,0;1000;2,0;1,0;3,0;0,0;row;1,0;False;True;True;1,93300008774;False;0,782999992371
MMM1993w;game;2017-05-04-14-00-44;5,0;2,0;1000;3,0;2,0;0,0;1,0;row;0,0;False;True;False;1,26699995995;True;0,555999994278
MMM1993w;game;2017-05-04-14-00-44;5,0;3,0;1000;3,0;0,0;1,0;2,0;row;1,0;True;False;False;2,4319999218;False;1,3259999752
MMM1993w;game;2017-05-04-14-00-44;5,0;4,0;1000;1,0;0,0;3,0;2,0;row;1,0;False;False;False;1,93300008774;True;0,601000070572
MMM1993w;game;2017-05-04-14-00-44;5,0;5,0;1000;2,0;3,0;0,0;1,0;row;0,0;True;True;True;2,70000004768;True;0,833999872208
MMM1993w;game;2017-05-04-14-00-44;5,0;6,0;1000;2,0;0,0;1,0;3,0;row;1,0;False;False;False;1,93400001526;True;0,93700003624
MMM1993w;game;2017-05-04-14-00-44;5,0;7,0;1000;0,0;2,0;1,0;3,0;column;1,0;True;True;True;2,06700015068;True;0,729000091553
MMM1993w;game;2017-05-04-14-00-44;5,0;8,0;1000;2,0;1,0;0,0;3,0;row;0,0;True;True;True;1,367000103;True;0,798000097275
MMM1993w;game;2017-05-04-14-00-44;5,0;9,0;1000;2,0;1,0;0,0;3,0;row;1,0;True;False;False;2,76600003242;False;1,10100007057
MMM1993w;game;2017-05-04-14-00-44;5,0;10,0;1000;3,0;2,0;0,0;1,0;column;1,0;True;True;False;1,96700000763;False;0,832000017166
MMM1993w;game;2017-05-04-14-00-44;5,0;11,0;1000;3,0;1,0;0,0;2,0;column;1,0;True;False;True;1,36699986458;True;1,30000019073
MMM1993w;game;2017-05-04-14-00-44;5,0;12,0;1000;1,0;2,0;3,0;0,0;column;0,0;True;False;False;2,10099983215;False;1,23000001907
MMM1993w;game;2017-05-04-14-00-44;5,0;13,0;1000;0,0;1,0;3,0;2,0;column;1,0;True;False;True;1,39999985695;True;0,666999816895
MMM1993w;game;2017-05-04-14-00-44;5,0;14,0;1000;1,0;0,0;2,0;3,0;column;1,0;False;False;False;1,39999985695;True;1,3900001049
MMM1993w;game;2017-05-04-14-00-44;5,0;15,0;1000;2,0;1,0;0,0;3,0;row;0,0;False;True;False;2,76700019836;True;0,757999897003
MMM1993w;game;2017-05-04-14-00-44;5,0;16,0;1000;2,0;1,0;0,0;3,0;column;0,0;True;True;False;1,80000019073;False;1,16700005531
MMM1993w;game;2017-05-04-14-00-44;5,0;17,0;1000;1,0;0,0;3,0;2,0;row;0,0;True;True;True;1,33299994469;True;1,43300008774
MMM1993w;game;2017-05-04-14-00-44;5,0;18,0;1000;3,0;1,0;0,0;2,0;row;0,0;True;True;True;1,20000004768;True;0,65700006485
MMM1993w;game;2017-05-04-14-00-44;5,0;19,0;1000;3,0;1,0;0,0;2,0;row;1,0;True;True;False;3,23299980164;False;0,700000047684
MMM1993w;game;2017-05-04-14-00-44;5,0;20,0;1000;3,0;1,0;2,0;0,0;column;0,0;True;True;False;3,13400006294;False;1,49699997902
MMM1993w;game;2017-05-04-14-00-44;5,0;21,0;1000;2,0;3,0;1,0;0,0;column;1,0;False;True;True;3,96700000763;False;0,934000015259
MMM1993w;game;2017-05-04-14-00-44;5,0;22,0;1000;0,0;1,0;3,0;2,0;row;0,0;True;False;True;1,0;True;1,29799985886
MMM1993w;game;2017-05-04-14-00-44;5,0;23,0;1000;0,0;2,0;1,0;3,0;row;1,0;True;True;True;2,40000009537;True;0,634999990463
MMM1993w;game;2017-05-04-14-00-44;5,0;24,0;1000;0,0;3,0;2,0;1,0;row;0,0;False;False;False;1,90000009537;True;0,730000019073
MMM1993w;game;2017-05-04-14-00-44;5,0;25,0;1000;1,0;0,0;3,0;2,0;row;1,0;True;True;True;2,96700000763;True;1,43799996376
MMM1993w;game;2017-05-04-14-00-44;5,0;26,0;1000;2,0;0,0;3,0;1,0;column;0,0;True;False;True;3,10000014305;True;1,26999998093
MMM1993w;game;2017-05-04-14-00-44;5,0;27,0;1000;2,0;3,0;0,0;1,0;row;1,0;True;False;False;2,03299999237;False;1,33899998665
MMM1993w;game;2017-05-04-14-00-44;5,0;28,0;1000;3,0;0,0;1,0;2,0;row;0,0;False;True;True;1,43299984932;False;0,831000089645
MMM1993w;game;2017-05-04-14-00-44;5,0;29,0;1000;2,0;3,0;1,0;0,0;row;0,0;False;True;False;1,5;True;1,36500000954
MMM1993w;game;2017-05-04-14-00-44;5,0;30,0;1000;0,0;2,0;3,0;1,0;row;1,0;True;True;False;2,46700000763;False;1,09999990463
MMM1993w;game;2017-05-04-14-00-44;5,0;31,0;1000;2,0;0,0;3,0;1,0;row;0,0;True;False;True;1,43300008774;True;0,667000055313
MMM1993w;game;2017-05-04-14-00-44;5,0;32,0;1000;2,0;3,0;1,0;0,0;column;1,0;True;True;False;2,16600012779;False;0,860999822617
MMM1993w;game;2017-05-04-14-00-44;5,0;33,0;1000;0,0;3,0;2,0;1,0;column;1,0;True;False;True;1,29999995232;True;1,32500004768
MMM1993w;game;2017-05-04-14-00-44;5,0;34,0;1000;0,0;1,0;3,0;2,0;column;0,0;True;True;True;2,79999995232;True;0,697000026703
MMM1993w;game;2017-05-04-14-00-44;5,0;35,0;1000;3,0;2,0;0,0;1,0;row;1,0;False;False;False;1,867000103;True;1,43799996376
MMM1993w;game;2017-05-04-14-00-44;5,0;36,0;1000;1,0;0,0;2,0;3,0;column;0,0;False;True;False;3,56599998474;True;1,20399999619
MMM1993w;game;2017-05-04-14-00-44;5,0;37,0;1000;2,0;3,0;1,0;0,0;row;1,0;True;True;True;3,16700005531;True;1,43499994278
MMM1993w;game;2017-05-04-14-00-44;5,0;38,0;1000;1,0;3,0;2,0;0,0;column;0,0;False;False;False;3,5;True;0,861999988556
MMM1993w;game;2017-05-04-14-00-44;5,0;39,0;1000;3,0;0,0;2,0;1,0;row;1,0;True;False;False;1,63199996948;False;0,593999862671
MMM1993w;game;2017-05-04-14-00-44;5,0;40,0;1000;0,0;2,0;3,0;1,0;row;0,0;True;True;True;2,36600017548;True;0,898999929428
MMM1993w;game;2017-05-04-14-00-44;5,0;41,0;1000;1,0;2,0;3,0;0,0;row;0,0;False;False;False;2,59500002861;True;1,25599980354
MMM1993w;game;2017-05-04-14-00-44;5,0;42,0;1000;0,0;3,0;1,0;2,0;column;0,0;True;True;False;2,33400011063;False;0,759999990463
MMM1993w;game;2017-05-04-14-00-44;5,0;43,0;1000;0,0;1,0;2,0;3,0;column;1,0;True;True;True;1,46600008011;True;0,729999780655
MMM1993w;game;2017-05-04-14-00-44;5,0;44,0;1000;0,0;1,0;2,0;3,0;row;1,0;False;True;False;2,43400001526;True;1,15900015831
MMM1993w;game;2017-05-04-14-00-44;5,0;45,0;1000;2,0;3,0;1,0;0,0;column;0,0;True;True;True;2,63300013542;True;0,5609998703
MMM1993w;game;2017-05-04-14-00-44;5,0;46,0;1000;1,0;3,0;2,0;0,0;row;1,0;False;False;False;6,23300004005;True;0,862999916077
MMM1993w;game;2017-05-04-14-00-44;5,0;47,0;1000;1,0;0,0;3,0;2,0;column;1,0;True;False;True;1,70000004768;True;0,667000055313
MMM1993w;game;2017-05-04-14-00-44;5,0;48,0;1000;1,0;3,0;0,0;2,0;column;1,0;True;True;True;1,16799998283;True;0,996999979019
MMM1993w;game;2017-05-04-14-00-44;6,0;1,0;-100;3,0;1,0;2,0;0,0;row;0,0;False;False;False;1,88199996948;True;1,20199990273
MMM1993w;game;2017-05-04-14-00-44;6,0;2,0;-100;1,0;0,0;3,0;2,0;column;0,0;False;False;True;3,01599979401;False;0,634000062943
MMM1993w;game;2017-05-04-14-00-44;6,0;3,0;-100;2,0;1,0;0,0;3,0;column;0,0;True;False;True;5,51399993896;True;0,998000144958
MMM1993w;game;2017-05-04-14-00-44;6,0;4,0;-100;3,0;2,0;1,0;0,0;column;0,0;True;False;True;2,51699995995;True;0,665999889374
MMM1993w;game;2017-05-04-14-00-44;6,0;5,0;-100;1,0;3,0;2,0;0,0;row;1,0;True;False;True;2,44799995422;True;1,1890001297
MMM1993w;game;2017-05-04-14-00-44;6,0;6,0;-100;1,0;0,0;2,0;3,0;column;0,0;False;True;False;3,51499986649;True;0,828999996185
MMM1993w;game;2017-05-04-14-00-44;6,0;7,0;-100;0,0;3,0;1,0;2,0;row;0,0;False;True;False;3,18200016022;True;1,16199994087
MMM1993w;game;2017-05-04-14-00-44;6,0;8,0;-100;0,0;3,0;1,0;2,0;row;1,0;True;False;True;2,55099987984;True;1,02900004387
MMM1993w;game;2017-05-04-14-00-44;6,0;9,0;-100;2,0;3,0;1,0;0,0;column;0,0;False;False;False;3,41499996185;True;1,09899997711
MMM1993w;game;2017-05-04-14-00-44;6,0;10,0;-100;2,0;3,0;0,0;1,0;row;0,0;False;True;False;2,18000006676;True;1,2990000248
MMM1993w;game;2017-05-04-14-00-44;6,0;11,0;-100;3,0;1,0;2,0;0,0;column;1,0;False;False;False;2,18499994278;True;0,835000038147
MMM1993w;game;2017-05-04-14-00-44;6,0;12,0;-100;0,0;1,0;3,0;2,0;column;0,0;True;True;True;2,91700005531;True;1,13899993896
MMM1993w;game;2017-05-04-14-00-44;6,0;13,0;-100;1,0;2,0;3,0;0,0;row;0,0;False;True;False;1,68400001526;True;1,16300010681
MMM1993w;game;2017-05-04-14-00-44;6,0;14,0;-100;2,0;1,0;3,0;0,0;column;0,0;False;True;False;1,9470000267;True;0,759000062943
MMM1993w;game;2017-05-04-14-00-44;6,0;15,0;-100;0,0;1,0;2,0;3,0;column;0,0;True;True;True;2,11599993706;True;1,33200001717
MMM1993w;game;2017-05-04-14-00-44;6,0;16,0;-100;1,0;2,0;3,0;0,0;row;1,0;False;False;False;2,55000019073;True;1,45899987221
MMM1993w;game;2017-05-04-14-00-44;6,0;17,0;-100;2,0;0,0;1,0;3,0;column;1,0;False;False;False;1,78299999237;True;1,33700013161
MMM1993w;game;2017-05-04-14-00-44;6,0;18,0;-100;2,0;3,0;0,0;1,0;column;0,0;False;True;False;2,48399996758;True;1,13700008392
MMM1993w;game;2017-05-04-14-00-44;6,0;19,0;-100;1,0;0,0;3,0;2,0;column;0,0;True;False;False;2,88199996948;False;1,09500002861
MMM1993w;game;2017-05-04-14-00-44;6,0;20,0;-100;1,0;3,0;0,0;2,0;row;1,0;True;False;False;3,28400015831;False;1,39599990845
MMM1993w;game;2017-05-04-14-00-44;6,0;21,0;-100;1,0;2,0;3,0;0,0;column;0,0;True;False;True;1,65099978447;True;1,19899988174
MMM1993w;game;2017-05-04-14-00-44;6,0;22,0;-100;2,0;1,0;0,0;3,0;column;1,0;False;True;False;2,21700000763;True;0,796999931335
MMM1993w;game;2017-05-04-14-00-44;6,0;23,0;-100;3,0;1,0;2,0;0,0;column;1,0;True;True;True;1,61599993706;True;1,26899981499
MMM1993w;game;2017-05-04-14-00-44;6,0;24,0;-100;3,0;0,0;1,0;2,0;column;1,0;True;True;True;2,65000009537;True;0,896000146866
MMM1993w;game;2017-05-04-14-00-44;6,0;25,0;-100;3,0;2,0;1,0;0,0;column;1,0;False;True;False;2,45000004768;True;1,19599986076
MMM1993w;game;2017-05-04-14-00-44;6,0;26,0;-100;0,0;2,0;1,0;3,0;row;0,0;False;False;False;2,15000009537;True;1,42900013924
MMM1993w;game;2017-05-04-14-00-44;6,0;27,0;-100;1,0;3,0;0,0;2,0;row;0,0;False;True;False;1,617000103;True;0,834000110626
MMM1993w;game;2017-05-04-14-00-44;6,0;28,0;-100;2,0;1,0;3,0;0,0;row;0,0;False;True;False;1,65000009537;True;0,871000051498
MMM1993w;game;2017-05-04-14-00-44;6,0;29,0;-100;3,0;1,0;0,0;2,0;row;0,0;False;True;False;2,11500000954;True;0,53200006485
MMM1993w;game;2017-05-04-14-00-44;6,0;30,0;-100;2,0;0,0;1,0;3,0;row;0,0;True;False;True;1,28400015831;True;1,13800001144
MMM1993w;game;2017-05-04-14-00-44;6,0;31,0;-100;1,0;3,0;2,0;0,0;row;0,0;False;True;False;1,15000009537;True;1,39899992943
MMM1993w;game;2017-05-04-14-00-44;6,0;32,0;-100;1,0;0,0;2,0;3,0;row;1,0;False;True;False;2,08200001717;True;1,02500009537
MMM1993w;game;2017-05-04-14-00-44;6,0;33,0;-100;3,0;2,0;1,0;0,0;column;1,0;True;True;True;1,882999897;True;1,30099987984
MMM1993w;game;2017-05-04-14-00-44;6,0;34,0;-100;0,0;3,0;2,0;1,0;column;0,0;True;False;True;1,38199996948;True;0,759000062943
MMM1993w;game;2017-05-04-14-00-44;6,0;35,0;-100;3,0;2,0;1,0;0,0;row;0,0;False;False;False;1,38300013542;True;1,32999992371
MMM1993w;game;2017-05-04-14-00-44;6,0;36,0;-100;2,0;3,0;1,0;0,0;row;0,0;False;True;False;1,41700005531;True;0,667999982834
MMM1993w;game;2017-05-04-14-00-44;6,0;37,0;-100;0,0;1,0;2,0;3,0;row;1,0;True;False;True;2,01600003242;True;1,19400000572
MMM1993w;game;2017-05-04-14-00-44;6,0;38,0;-100;1,0;3,0;2,0;0,0;row;1,0;False;True;True;2,21399998665;False;0,698999881744
MMM1993w;game;2017-05-04-14-00-44;6,0;39,0;-100;3,0;0,0;2,0;1,0;row;1,0;False;True;True;1,14800000191;False;1,3029999733
MMM1993w;game;2017-05-04-14-00-44;6,0;40,0;-100;0,0;2,0;1,0;3,0;row;0,0;True;True;True;1,34899997711;True;0,790000200272
MMM1993w;game;2017-05-04-14-00-44;6,0;41,0;-100;3,0;2,0;0,0;1,0;column;1,0;False;False;False;1,68400001526;True;0,734999895096
MMM1993w;game;2017-05-04-14-00-44;6,0;42,0;-100;1,0;0,0;2,0;3,0;row;0,0;False;False;False;1,25;True;1,45999979973
MMM1993w;game;2017-05-04-14-00-44;6,0;43,0;-100;2,0;1,0;3,0;0,0;row;1,0;False;True;False;1,78399991989;True;0,569000005722
MMM1993w;game;2017-05-04-14-00-44;6,0;44,0;-100;2,0;0,0;1,0;3,0;row;1,0;True;False;True;1,44999980927;True;1,26399993896
MMM1993w;game;2017-05-04-14-00-44;6,0;45,0;-100;0,0;1,0;3,0;2,0;row;0,0;False;False;False;1,05100011826;True;1,26999998093
MMM1993w;game;2017-05-04-14-00-44;6,0;46,0;-100;3,0;2,0;0,0;1,0;row;0,0;False;False;False;1,21700000763;True;1,4319999218
MMM1993w;game;2017-05-04-14-00-44;6,0;47,0;-100;3,0;1,0;2,0;0,0;row;1,0;True;False;True;1,41400003433;True;1,43200016022
MMM1993w;game;2017-05-04-14-00-44;6,0;48,0;-100;1,0;2,0;0,0;3,0;row;0,0;True;False;True;1,68299984932;True;0,796000003815
MMM1993w;game;2017-05-04-14-00-44;7,0;1,0;-100;0,0;1,0;2,0;3,0;column;0,0;False;False;False;1,71600008011;True;0,901999950409
MMM1993w;game;2017-05-04-14-00-44;7,0;2,0;-100;2,0;1,0;3,0;0,0;column;1,0;True;False;False;1,88199996948;False;1,0
MMM1993w;game;2017-05-04-14-00-44;7,0;3,0;-100;0,0;3,0;1,0;2,0;row;0,0;True;True;True;1,98300004005;True;0,933000087738
MMM1993w;game;2017-05-04-14-00-44;7,0;4,0;-100;0,0;1,0;3,0;2,0;column;1,0;False;False;False;1,6819999218;True;1,36500000954
MMM1993w;game;2017-05-04-14-00-44;7,0;5,0;-100;1,0;0,0;2,0;3,0;row;0,0;True;True;True;0,982000112534;True;0,93499994278
MMM1993w;game;2017-05-04-14-00-44;7,0;6,0;-100;3,0;1,0;0,0;2,0;row;1,0;True;False;True;2,14899992943;True;0,90299987793
MMM1993w;game;2017-05-04-14-00-44;7,0;7,0;-100;0,0;2,0;3,0;1,0;row;0,0;False;True;False;1,74900007248;True;1,46399998665
MMM1993w;game;2017-05-04-14-00-44;7,0;8,0;-100;0,0;1,0;3,0;2,0;row;0,0;True;True;True;0,947999954224;True;1,09999990463
MMM1993w;game;2017-05-04-14-00-44;7,0;9,0;-100;0,0;2,0;1,0;3,0;column;1,0;True;False;True;1,65000009537;True;1,46300005913
MMM1993w;game;2017-05-04-14-00-44;7,0;10,0;-100;0,0;1,0;2,0;3,0;column;1,0;False;True;False;1,38199996948;True;0,896000146866
MMM1993w;game;2017-05-04-14-00-44;7,0;11,0;-100;0,0;2,0;1,0;3,0;row;1,0;False;True;False;1,71700000763;True;1,10500001907
MMM1993w;game;2017-05-04-14-00-44;7,0;12,0;-100;1,0;2,0;0,0;3,0;row;0,0;False;False;False;1,08200001717;True;0,664000034332
MMM1993w;game;2017-05-04-14-00-44;7,0;13,0;-100;0,0;2,0;3,0;1,0;row;0,0;True;True;True;1,08299994469;True;1,13599991798
MMM1993w;game;2017-05-04-14-00-44;7,0;14,0;-100;1,0;3,0;0,0;2,0;column;0,0;False;False;False;1,64899992943;True;0,638000011444
MMM1993w;game;2017-05-04-14-00-44;7,0;15,0;-100;2,0;0,0;3,0;1,0;row;0,0;True;False;True;1,11599993706;True;0,901000022888
MMM1993w;game;2017-05-04-14-00-44;7,0;16,0;-100;3,0;1,0;0,0;2,0;column;1,0;False;False;False;1,68400001526;True;0,59500002861
MMM1993w;game;2017-05-04-14-00-44;7,0;17,0;-100;2,0;0,0;3,0;1,0;row;0,0;False;False;False;1,51300001144;True;0,731000185013
MMM1993w;game;2017-05-04-14-00-44;7,0;18,0;-100;2,0;0,0;3,0;1,0;column;1,0;True;False;True;1,45000004768;True;1,132999897
MMM1993w;game;2017-05-04-14-00-44;7,0;19,0;-100;3,0;2,0;0,0;1,0;column;1,0;True;False;True;1,61600017548;True;0,759999990463
MMM1993w;game;2017-05-04-14-00-44;7,0;20,0;-100;3,0;0,0;1,0;2,0;row;0,0;True;True;True;0,949000120163;True;0,532999992371
MMM1993w;game;2017-05-04-14-00-44;7,0;21,0;-100;0,0;3,0;1,0;2,0;row;1,0;False;False;False;1,51699995995;True;0,631000041962
MMM1993w;game;2017-05-04-14-00-44;7,0;22,0;-100;2,0;3,0;0,0;1,0;column;1,0;False;True;False;1,31500005722;True;0,664999961853
MMM1993w;game;2017-05-04-14-00-44;7,0;23,0;-100;1,0;0,0;3,0;2,0;row;1,0;True;True;True;1,31699991226;True;1,39499998093
MMM1993w;game;2017-05-04-14-00-44;7,0;24,0;-100;3,0;1,0;0,0;2,0;column;0,0;False;False;False;2,71399998665;True;1,09800004959
MMM1993w;game;2017-05-04-14-00-44;7,0;25,0;-100;1,0;3,0;2,0;0,0;column;0,0;False;True;False;1,38300013542;True;1,17600011826
MMM1993w;game;2017-05-04-14-00-44;7,0;26,0;-100;3,0;2,0;0,0;1,0;row;0,0;True;False;True;0,983999967575;True;1,50300002098
MMM1993w;game;2017-05-04-14-00-44;7,0;27,0;-100;1,0;3,0;2,0;0,0;row;0,0;True;True;True;1,08200001717;True;0,635999917984
MMM1993w;game;2017-05-04-14-00-44;7,0;28,0;-100;0,0;3,0;2,0;1,0;row;0,0;False;False;False;1,01700019836;True;0,925000190735
MMM1993w;game;2017-05-04-14-00-44;7,0;29,0;-100;0,0;2,0;3,0;1,0;column;1,0;True;False;False;1,81599998474;False;1,20300006866
MMM1993w;game;2017-05-04-14-00-44;7,0;30,0;-100;3,0;0,0;2,0;1,0;row;1,0;True;False;True;1,61400008202;True;0,698999881744
MMM1993w;game;2017-05-04-14-00-44;7,0;31,0;-100;2,0;0,0;3,0;1,0;row;1,0;True;False;True;1,24899983406;True;0,55999994278
MMM1993w;game;2017-05-04-14-00-44;7,0;32,0;-100;2,0;0,0;1,0;3,0;column;0,0;False;True;False;2,117000103;True;1,0
MMM1993w;game;2017-05-04-14-00-44;7,0;33,0;-100;0,0;3,0;1,0;2,0;column;0,0;True;True;True;2,0490000248;True;0,595999956131
MMM1993w;game;2017-05-04-14-00-44;7,0;34,0;-100;2,0;3,0;1,0;0,0;row;1,0;False;True;False;1,94900012016;True;1,46900010109
MMM1993w;game;2017-05-04-14-00-44;7,0;35,0;-100;3,0;2,0;1,0;0,0;row;0,0;True;True;True;0,816999912262;True;0,792999982834
MMM1993w;game;2017-05-04-14-00-44;7,0;36,0;-100;1,0;3,0;0,0;2,0;row;0,0;True;True;False;1,4470000267;False;0,871000051498
MMM1993w;game;2017-05-04-14-00-44;7,0;37,0;-100;0,0;2,0;1,0;3,0;row;1,0;True;False;True;1,51600003242;True;0,628999948502
MMM1993w;game;2017-05-04-14-00-44;7,0;38,0;-100;1,0;0,0;2,0;3,0;row;1,0;True;False;True;0,984999895096;True;1,33600020409
MMM1993w;game;2017-05-04-14-00-44;7,0;39,0;-100;3,0;2,0;1,0;0,0;column;0,0;False;False;True;2,14899992943;False;1,29299998283
MMM1993w;game;2017-05-04-14-00-44;7,0;40,0;-100;2,0;3,0;1,0;0,0;column;0,0;True;True;False;1,34899997711;False;0,766999959946
MMM1993w;game;2017-05-04-14-00-44;7,0;41,0;-100;0,0;2,0;3,0;1,0;column;0,0;True;False;True;1,78299999237;True;0,697999954224
MMM1993w;game;2017-05-04-14-00-44;7,0;42,0;-100;1,0;2,0;0,0;3,0;column;1,0;True;True;True;1,91499996185;True;1,26799988747
MMM1993w;game;2017-05-04-14-00-44;7,0;43,0;-100;2,0;3,0;0,0;1,0;row;1,0;False;False;False;1,74900007248;True;0,900000095367
MMM1993w;game;2017-05-04-14-00-44;7,0;44,0;-100;1,0;2,0;0,0;3,0;row;1,0;True;False;False;1,25;False;0,767999887466
MMM1993w;game;2017-05-04-14-00-44;7,0;45,0;-100;0,0;2,0;3,0;1,0;column;1,0;False;True;False;1,95200014114;True;0,526000022888
MMM1993w;game;2017-05-04-14-00-44;7,0;46,0;-100;2,0;1,0;0,0;3,0;row;0,0;True;True;True;0,947000026703;True;1,36800003052
MMM1993w;game;2017-05-04-14-00-44;7,0;47,0;-100;3,0;1,0;0,0;2,0;column;0,0;True;True;True;1,94899988174;True;1,33500003815
MMM1993w;game;2017-05-04-14-00-44;7,0;48,0;-100;3,0;0,0;2,0;1,0;column;1,0;True;True;True;1,25100016594;True;1,50300002098
MMM1993w;game;2017-05-04-14-00-44;8,0;1,0;1000;0,0;1,0;3,0;2,0;row;1,0;True;True;False;1,53200006485;False;0,873000144958
MMM1993w;game;2017-05-04-14-00-44;8,0;2,0;1000;1,0;3,0;2,0;0,0;column;1,0;False;True;False;2,36699986458;True;0,834000110626
MMM1993w;game;2017-05-04-14-00-44;8,0;3,0;1000;3,0;2,0;1,0;0,0;column;1,0;True;True;False;1,69999980927;False;0,791000127792
MMM1993w;game;2017-05-04-14-00-44;8,0;4,0;1000;1,0;0,0;2,0;3,0;column;1,0;True;True;True;1,19999980927;True;0,569000005722
MMM1993w;game;2017-05-04-14-00-44;8,0;5,0;1000;3,0;1,0;0,0;2,0;column;0,0;False;True;False;1,53299999237;True;1,16400003433
MMM1993w;game;2017-05-04-14-00-44;8,0;6,0;1000;2,0;0,0;1,0;3,0;row;0,0;True;True;True;1,09999990463;True;0,965000152588
MMM1993w;game;2017-05-04-14-00-44;8,0;7,0;1000;1,0;2,0;0,0;3,0;row;0,0;False;True;False;1,69999980927;True;1,22699999809
MMM1993w;game;2017-05-04-14-00-44;8,0;8,0;1000;0,0;1,0;3,0;2,0;row;1,0;False;True;False;1,93300008774;True;1,40299987793
MMM1993w;game;2017-05-04-14-00-44;8,0;9,0;1000;1,0;2,0;3,0;0,0;column;1,0;True;True;True;1,90499997139;True;0,868000030518
MMM1993w;game;2017-05-04-14-00-44;8,0;10,0;1000;3,0;0,0;1,0;2,0;column;0,0;True;True;False;1,5;False;0,830000162125
MMM1993w;game;2017-05-04-14-00-44;8,0;11,0;1000;3,0;1,0;0,0;2,0;column;0,0;True;True;True;2,23400020599;True;0,59900021553
MMM1993w;game;2017-05-04-14-00-44;8,0;12,0;1000;2,0;0,0;1,0;3,0;row;1,0;True;True;True;2,73400020599;True;0,822999954224
MMM1993w;game;2017-05-04-14-00-44;8,0;13,0;1000;3,0;2,0;0,0;1,0;row;1,0;True;False;True;2,46600008011;True;0,664000034332
MMM1993w;game;2017-05-04-14-00-44;8,0;14,0;1000;1,0;3,0;0,0;2,0;column;0,0;True;False;False;1,90000009537;False;0,726999998093
MMM1993w;game;2017-05-04-14-00-44;8,0;15,0;1000;0,0;2,0;1,0;3,0;column;0,0;True;True;False;1,66700005531;False;1,10099983215
MMM1993w;game;2017-05-04-14-00-44;8,0;16,0;1000;0,0;3,0;1,0;2,0;column;1,0;False;False;True;2,26399993896;False;0,891000032425
MMM1993w;game;2017-05-04-14-00-44;8,0;17,0;1000;3,0;2,0;0,0;1,0;column;0,0;True;True;True;2,2990000248;True;1,13300013542
MMM1993w;game;2017-05-04-14-00-44;8,0;18,0;1000;3,0;2,0;1,0;0,0;column;0,0;False;False;False;1,89899992943;True;1,06599998474
MMM1993w;game;2017-05-04-14-00-44;8,0;19,0;1000;2,0;3,0;1,0;0,0;row;0,0;True;True;True;2,10000014305;True;0,702999830246
MMM1993w;game;2017-05-04-14-00-44;8,0;20,0;1000;1,0;0,0;3,0;2,0;column;0,0;False;False;False;2,33500003815;True;0,969000101089
MMM1993w;game;2017-05-04-14-00-44;8,0;21,0;1000;3,0;2,0;0,0;1,0;column;0,0;False;True;False;1,53400015831;True;0,634000062943
MMM1993w;game;2017-05-04-14-00-44;8,0;22,0;1000;0,0;1,0;3,0;2,0;row;0,0;False;False;False;2,26699995995;True;1,49699997902
MMM1993w;game;2017-05-04-14-00-44;8,0;23,0;1000;1,0;3,0;2,0;0,0;column;1,0;True;False;True;3,06599998474;True;1,02600002289
MMM1993w;game;2017-05-04-14-00-44;8,0;24,0;1000;2,0;3,0;0,0;1,0;row;1,0;False;False;False;2,0;True;1,2990000248
MMM1993w;game;2017-05-04-14-00-44;8,0;25,0;1000;1,0;3,0;2,0;0,0;column;0,0;True;True;True;2,23399996758;True;0,668999910355
MMM1993w;game;2017-05-04-14-00-44;8,0;26,0;1000;1,0;0,0;2,0;3,0;row;0,0;False;False;False;1,60000014305;True;0,963999986649
MMM1993w;game;2017-05-04-14-00-44;8,0;27,0;1000;3,0;1,0;2,0;0,0;column;1,0;False;False;False;2,03399991989;True;0,56500005722
MMM1993w;game;2017-05-04-14-00-44;8,0;28,0;1000;3,0;1,0;2,0;0,0;row;1,0;False;True;False;2,0649998188;True;1,12599992752
MMM1993w;game;2017-05-04-14-00-44;8,0;29,0;1000;0,0;1,0;2,0;3,0;column;0,0;False;True;False;1,73200011253;True;1,06599998474
MMM1993w;game;2017-05-04-14-00-44;8,0;30,0;1000;0,0;3,0;1,0;2,0;row;0,0;False;True;False;1,93300008774;True;1,44000005722
MMM1993w;game;2017-05-04-14-00-44;8,0;31,0;1000;2,0;1,0;3,0;0,0;row;0,0;False;False;False;1,86599993706;True;1,22799992561
MMM1993w;game;2017-05-04-14-00-44;8,0;32,0;1000;0,0;3,0;1,0;2,0;row;0,0;True;True;True;1,26600003242;True;0,628000020981
MMM1993w;game;2017-05-04-14-00-44;8,0;33,0;1000;3,0;2,0;1,0;0,0;row;0,0;False;True;False;2,03200006485;True;1,43000006676
MMM1993w;game;2017-05-04-14-00-44;8,0;34,0;1000;1,0;0,0;2,0;3,0;row;1,0;True;False;False;2,73000001907;False;1,23500013351
MMM1993w;game;2017-05-04-14-00-44;8,0;35,0;1000;1,0;3,0;0,0;2,0;row;1,0;True;True;True;1,60000014305;True;0,825999975204
MMM1993w;game;2017-05-04-14-00-44;8,0;36,0;1000;2,0;1,0;0,0;3,0;column;0,0;False;True;False;2,53299999237;True;0,792000055313
MMM1993w;game;2017-05-04-14-00-44;8,0;37,0;1000;0,0;1,0;2,0;3,0;row;0,0;False;False;False;1,59999990463;True;0,56200003624
MMM1993w;game;2017-05-04-14-00-44;8,0;38,0;1000;2,0;0,0;1,0;3,0;column;0,0;True;False;True;1,5;True;0,669999837875
MMM1993w;game;2017-05-04-14-00-44;8,0;39,0;1000;3,0;2,0;0,0;1,0;column;1,0;False;True;False;1,19899988174;True;0,868999958038
MMM1993w;game;2017-05-04-14-00-44;8,0;40,0;1000;1,0;3,0;2,0;0,0;row;0,0;True;False;True;0,799999952316;True;0,65399980545
MMM1993w;game;2017-05-04-14-00-44;8,0;41,0;1000;0,0;3,0;1,0;2,0;column;1,0;True;False;False;1,79999995232;False;0,593000173569
MMM1993w;game;2017-05-04-14-00-44;8,0;42,0;1000;2,0;1,0;3,0;0,0;row;0,0;True;True;True;0,865999937057;True;0,588999986649
MMM1993w;game;2017-05-04-14-00-44;8,0;43,0;1000;3,0;2,0;1,0;0,0;row;0,0;True;False;True;0,766999959946;True;1,0680000782
MMM1993w;game;2017-05-04-14-00-44;8,0;44,0;1000;1,0;3,0;2,0;0,0;row;1,0;True;True;True;1,76699995995;True;1,46100020409
MMM1993w;game;2017-05-04-14-00-44;8,0;45,0;1000;0,0;2,0;3,0;1,0;column;1,0;False;True;False;2,03299999237;True;1,32700014114
MMM1993w;game;2017-05-04-14-00-44;8,0;46,0;1000;3,0;0,0;1,0;2,0;row;0,0;True;True;True;1,09999990463;True;1,20600008965
MMM1993w;game;2017-05-04-14-00-44;8,0;47,0;1000;2,0;3,0;1,0;0,0;column;0,0;False;False;False;2,06599998474;True;1,16299986839
MMM1993w;game;2017-05-04-14-00-44;8,0;48,0;1000;3,0;0,0;2,0;1,0;column;0,0;False;True;False;2,70000004768;True;1,03199982643
MMM1993w;game;2017-05-04-14-00-44;9,0;1,0;100;2,0;3,0;0,0;1,0;column;1,0;False;False;True;1,83299994469;False;0,900000095367
MMM1993w;game;2017-05-04-14-00-44;9,0;2,0;100;2,0;1,0;0,0;3,0;row;0,0;False;True;False;1,2009999752;True;0,589999914169
MMM1993w;game;2017-05-04-14-00-44;9,0;3,0;100;2,0;0,0;3,0;1,0;row;0,0;False;True;False;1,23399996758;True;0,825999975204
MMM1993w;game;2017-05-04-14-00-44;9,0;4,0;100;2,0;0,0;1,0;3,0;column;0,0;False;True;False;1,33299994469;True;1,1369998455
MMM1993w;game;2017-05-04-14-00-44;9,0;5,0;100;2,0;1,0;0,0;3,0;column;0,0;False;True;False;1,26600003242;True;0,895999908447
MMM1993w;game;2017-05-04-14-00-44;9,0;6,0;100;3,0;1,0;0,0;2,0;row;0,0;True;True;True;0,600000143051;True;1,16599988937
MMM1993w;game;2017-05-04-14-00-44;9,0;7,0;100;3,0;0,0;2,0;1,0;row;1,0;False;True;False;1,43299984932;True;0,802999973297
MMM1993w;game;2017-05-04-14-00-44;9,0;8,0;100;0,0;2,0;1,0;3,0;row;0,0;False;False;False;1,43299984932;True;0,699999809265
MMM1993w;game;2017-05-04-14-00-44;9,0;9,0;100;1,0;2,0;0,0;3,0;column;0,0;True;True;True;1,69999980927;True;0,894000053406
MMM1993w;game;2017-05-04-14-00-44;9,0;10,0;100;2,0;1,0;0,0;3,0;column;1,0;False;False;True;2,19999980927;False;1,23099994659
MMM1993w;game;2017-05-04-14-00-44;9,0;11,0;100;1,0;2,0;3,0;0,0;column;0,0;False;False;False;2,26699995995;True;1,47200012207
MMM1993w;game;2017-05-04-14-00-44;9,0;12,0;100;0,0;1,0;3,0;2,0;column;1,0;False;True;False;1,5;True;0,766999959946
MMM1993w;game;2017-05-04-14-00-44;9,0;13,0;100;2,0;1,0;0,0;3,0;column;0,0;True;True;True;1,367000103;True;1,132999897
MMM1993w;game;2017-05-04-14-00-44;9,0;14,0;100;2,0;0,0;1,0;3,0;column;0,0;True;True;True;1,03299999237;True;1,43099999428
MMM1993w;game;2017-05-04-14-00-44;9,0;15,0;100;3,0;2,0;1,0;0,0;column;0,0;True;False;False;1,80000019073;False;0,835000038147
MMM1993w;game;2017-05-04-14-00-44;9,0;16,0;100;3,0;2,0;0,0;1,0;column;1,0;False;True;False;1,73300004005;True;1,367000103
MMM1993w;game;2017-05-04-14-00-44;9,0;17,0;100;1,0;3,0;2,0;0,0;column;1,0;True;True;True;1,83299994469;True;1,36500000954
MMM1993w;game;2017-05-04-14-00-44;9,0;18,0;100;0,0;2,0;3,0;1,0;column;0,0;True;False;False;1,23300004005;False;1,43099999428
MMM1993w;game;2017-05-04-14-00-44;9,0;19,0;100;2,0;0,0;3,0;1,0;row;1,0;True;False;True;1,53299999237;True;0,723999977112
MMM1993w;game;2017-05-04-14-00-44;9,0;20,0;100;0,0;1,0;3,0;2,0;row;0,0;True;True;True;0,799999952316;True;1,4279999733
MMM1993w;game;2017-05-04-14-00-44;9,0;21,0;100;0,0;1,0;2,0;3,0;row;1,0;True;False;False;2,53299999237;False;1,50099992752
MMM1993w;game;2017-05-04-14-00-44;9,0;22,0;100;3,0;2,0;0,0;1,0;column;0,0;True;True;True;1,53299999237;True;0,799000024796
MMM1993w;game;2017-05-04-14-00-44;9,0;23,0;100;0,0;3,0;1,0;2,0;row;0,0;False;True;False;1,29999995232;True;0,863000154495
MMM1993w;game;2017-05-04-14-00-44;9,0;24,0;100;3,0;2,0;1,0;0,0;row;1,0;False;True;True;1,76600003242;False;0,933000087738
MMM1993w;game;2017-05-04-14-00-44;9,0;25,0;100;1,0;2,0;3,0;0,0;column;1,0;True;False;False;1,79999995232;False;1,0640001297
MMM1993w;game;2017-05-04-14-00-44;9,0;26,0;100;1,0;0,0;2,0;3,0;column;1,0;True;True;True;1,49900007248;True;1,43299984932
MMM1993w;game;2017-05-04-14-00-44;9,0;27,0;100;3,0;1,0;2,0;0,0;row;0,0;True;True;True;0,834000110626;True;1,46799993515
MMM1993w;game;2017-05-04-14-00-44;9,0;28,0;100;1,0;3,0;0,0;2,0;row;1,0;False;True;True;1,33500003815;False;1,3639998436
MMM1993w;game;2017-05-04-14-00-44;9,0;29,0;100;3,0;0,0;2,0;1,0;column;1,0;False;False;False;1,367000103;True;0,621999979019
MMM1993w;game;2017-05-04-14-00-44;9,0;30,0;100;1,0;3,0;2,0;0,0;column;0,0;False;True;False;1,36599993706;True;1,16100001335
MMM1993w;game;2017-05-04-14-00-44;9,0;31,0;100;2,0;0,0;1,0;3,0;row;1,0;True;True;True;1,16600012779;True;1,26900005341
MMM1993w;game;2017-05-04-14-00-44;9,0;32,0;100;0,0;1,0;3,0;2,0;column;0,0;True;False;True;1,76699995995;True;1,20000004768
MMM1993w;game;2017-05-04-14-00-44;9,0;33,0;100;2,0;0,0;1,0;3,0;column;1,0;True;False;True;1,30099987984;True;1,39800000191
MMM1993w;game;2017-05-04-14-00-44;9,0;34,0;100;3,0;2,0;0,0;1,0;row;1,0;False;False;False;1,30000019073;True;1,09100008011
MMM1993w;game;2017-05-04-14-00-44;9,0;35,0;100;3,0;0,0;2,0;1,0;column;0,0;True;True;True;1,66700005531;True;1,36400008202
MMM1993w;game;2017-05-04-14-00-44;9,0;36,0;100;3,0;1,0;2,0;0,0;row;0,0;False;True;False;1,96700000763;True;0,59299993515
MMM1993w;game;2017-05-04-14-00-44;9,0;37,0;100;2,0;0,0;1,0;3,0;row;1,0;False;True;False;1,867000103;True;0,55999994278
MMM1993w;game;2017-05-04-14-00-44;9,0;38,0;100;0,0;3,0;1,0;2,0;row;1,0;False;False;True;1,66700005531;False;0,930000066757
MMM1993w;game;2017-05-04-14-00-44;9,0;39,0;100;0,0;1,0;3,0;2,0;row;0,0;False;True;True;2,19999980927;False;0,768000125885
MMM1993w;game;2017-05-04-14-00-44;9,0;40,0;100;0,0;1,0;3,0;2,0;row;1,0;False;True;True;1,29999995232;False;1,42700004578
MMM1993w;game;2017-05-04-14-00-44;9,0;41,0;100;2,0;3,0;1,0;0,0;row;0,0;True;False;True;0,934000015259;True;1,46500015259
MMM1993w;game;2017-05-04-14-00-44;9,0;42,0;100;3,0;2,0;1,0;0,0;row;0,0;True;True;True;0,866999864578;True;0,658999919891
MMM1993w;game;2017-05-04-14-00-44;9,0;43,0;100;1,0;0,0;3,0;2,0;column;0,0;False;False;False;1,89999985695;True;0,930000066757
MMM1993w;game;2017-05-04-14-00-44;9,0;44,0;100;3,0;0,0;1,0;2,0;column;1,0;False;True;False;1,40000009537;True;0,568000078201
MMM1993w;game;2017-05-04-14-00-44;9,0;45,0;100;1,0;0,0;3,0;2,0;column;1,0;True;True;True;2,36599993706;True;0,629999876022
MMM1993w;game;2017-05-04-14-00-44;9,0;46,0;100;3,0;2,0;0,0;1,0;column;0,0;False;False;False;1,96700000763;True;1,09800004959
MMM1993w;game;2017-05-04-14-00-44;9,0;47,0;100;3,0;0,0;1,0;2,0;row;1,0;True;False;True;1,33299994469;True;0,90299987793
MMM1993w;game;2017-05-04-14-00-44;9,0;48,0;100;0,0;1,0;2,0;3,0;column;0,0;False;False;False;1,83200001717;True;1,02999997139
MMM1993w;game;2017-05-04-14-00-44;10,0;1,0;-100;2,0;0,0;1,0;3,0;row;0,0;False;True;False;1,65100002289;True;0,930000066757
MMM1993w;game;2017-05-04-14-00-44;10,0;2,0;-100;2,0;0,0;3,0;1,0;row;1,0;False;True;False;1,21600008011;True;1,23799991608
MMM1993w;game;2017-05-04-14-00-44;10,0;3,0;-100;1,0;3,0;2,0;0,0;column;1,0;False;False;False;1,24900007248;True;1,39499998093
MMM1993w;game;2017-05-04-14-00-44;10,0;4,0;-100;0,0;1,0;2,0;3,0;row;0,0;True;False;True;0,850000143051;True;1,1320002079
MMM1993w;game;2017-05-04-14-00-44;10,0;5,0;-100;0,0;1,0;3,0;2,0;column;0,0;False;True;False;2,15100002289;True;0,931999921799
MMM1993w;game;2017-05-04-14-00-44;10,0;6,0;-100;1,0;3,0;0,0;2,0;row;1,0;False;False;False;1,34999990463;True;1,367000103
MMM1993w;game;2017-05-04-14-00-44;10,0;7,0;-100;3,0;2,0;0,0;1,0;row;1,0;False;True;False;1,34999990463;True;1,5
MMM1993w;game;2017-05-04-14-00-44;10,0;8,0;-100;3,0;0,0;2,0;1,0;row;0,0;True;True;True;0,75;True;1,29899978638
MMM1993w;game;2017-05-04-14-00-44;10,0;9,0;-100;2,0;0,0;1,0;3,0;column;1,0;True;True;True;1,35099983215;True;1,0569999218
MMM1993w;game;2017-05-04-14-00-44;10,0;10,0;-100;0,0;3,0;1,0;2,0;column;1,0;False;True;False;1,14900016785;True;1,22699999809
MMM1993w;game;2017-05-04-14-00-44;10,0;11,0;-100;3,0;1,0;2,0;0,0;row;1,0;False;False;False;1,75099992752;True;0,963999986649
MMM1993w;game;2017-05-04-14-00-44;10,0;12,0;-100;2,0;0,0;1,0;3,0;column;0,0;True;True;True;1,48300004005;True;1,36800003052
MMM1993w;game;2017-05-04-14-00-44;10,0;13,0;-100;2,0;1,0;3,0;0,0;column;0,0;True;False;True;1,81700015068;True;0,700000047684
MMM1993w;game;2017-05-04-14-00-44;10,0;14,0;-100;3,0;0,0;1,0;2,0;row;0,0;False;True;False;1,31700015068;True;0,93700003624
MMM1993w;game;2017-05-04-14-00-44;10,0;15,0;-100;3,0;2,0;0,0;1,0;column;0,0;False;False;False;1,61400008202;True;1,4960000515
MMM1993w;game;2017-05-04-14-00-44;10,0;16,0;-100;3,0;0,0;1,0;2,0;column;1,0;False;False;False;1,18400001526;True;1,50199985504
MMM1993w;game;2017-05-04-14-00-44;10,0;17,0;-100;3,0;2,0;1,0;0,0;row;1,0;False;True;False;1,31599998474;True;1,39700007439
MMM1993w;game;2017-05-04-14-00-44;10,0;18,0;-100;0,0;2,0;3,0;1,0;row;1,0;True;True;False;1,48399996758;False;1,20300006866
MMM1993w;game;2017-05-04-14-00-44;10,0;19,0;-100;2,0;0,0;3,0;1,0;column;0,0;False;False;False;1,75;True;1,50299978256
MMM1993w;game;2017-05-04-14-00-44;10,0;20,0;-100;0,0;2,0;3,0;1,0;column;0,0;False;False;False;1,21699976921;True;1,09399986267
MMM1993w;game;2017-05-04-14-00-44;10,0;21,0;-100;1,0;0,0;3,0;2,0;column;1,0;False;False;False;1,81700015068;True;1,09500002861
MMM1993w;game;2017-05-04-14-00-44;10,0;22,0;-100;2,0;0,0;3,0;1,0;column;0,0;True;True;True;1,91599988937;True;1,46899986267
MMM1993w;game;2017-05-04-14-00-44;10,0;23,0;-100;3,0;1,0;2,0;0,0;column;0,0;False;True;False;1,44899988174;True;1,22699999809
MMM1993w;game;2017-05-04-14-00-44;10,0;24,0;-100;1,0;3,0;0,0;2,0;column;0,0;True;False;False;2,28400015831;False;0,529000043869
MMM1993w;game;2017-05-04-14-00-44;10,0;25,0;-100;1,0;3,0;0,0;2,0;column;1,0;True;False;True;1,25;True;1,16400003433
MMM1993w;game;2017-05-04-14-00-44;10,0;26,0;-100;1,0;0,0;3,0;2,0;row;0,0;False;True;False;1,35100007057;True;0,932999849319
MMM1993w;game;2017-05-04-14-00-44;10,0;27,0;-100;2,0;1,0;3,0;0,0;row;0,0;True;True;True;0,850000143051;True;1,46899986267
MMM1993w;game;2017-05-04-14-00-44;10,0;28,0;-100;2,0;0,0;1,0;3,0;row;1,0;False;True;True;2,41699981689;False;0,726999998093
MMM1993w;game;2017-05-04-14-00-44;10,0;29,0;-100;1,0;2,0;3,0;0,0;row;0,0;True;False;True;0,850000143051;True;0,630000114441
MMM1993w;game;2017-05-04-14-00-44;10,0;30,0;-100;0,0;1,0;3,0;2,0;column;1,0;True;True;True;1,04999995232;True;1,10599994659
MMM1993w;game;2017-05-04-14-00-44;10,0;31,0;-100;2,0;1,0;3,0;0,0;column;1,0;False;False;False;1,08299994469;True;1,4279999733
MMM1993w;game;2017-05-04-14-00-44;10,0;32,0;-100;2,0;1,0;0,0;3,0;column;1,0;True;True;True;1,25;True;0,736999988556
MMM1993w;game;2017-05-04-14-00-44;10,0;33,0;-100;3,0;0,0;1,0;2,0;column;0,0;True;True;True;1,34899997711;True;0,532999992371
MMM1993w;game;2017-05-04-14-00-44;10,0;34,0;-100;1,0;2,0;3,0;0,0;column;0,0;False;False;False;1,382999897;True;0,631000041962
MMM1993w;game;2017-05-04-14-00-44;10,0;35,0;-100;1,0;2,0;3,0;0,0;row;1,0;True;False;False;1,44999980927;False;0,603999853134
MMM1993w;game;2017-05-04-14-00-44;10,0;36,0;-100;2,0;3,0;0,0;1,0;row;0,0;True;True;True;0,783999919891;True;0,569000005722
MMM1993w;game;2017-05-04-14-00-44;10,0;37,0;-100;2,0;3,0;0,0;1,0;column;0,0;True;True;True;1,44799995422;True;0,700999975204
MMM1993w;game;2017-05-04-14-00-44;10,0;38,0;-100;0,0;3,0;1,0;2,0;column;1,0;True;True;True;1,31399989128;True;1,0640001297
MMM1993w;game;2017-05-04-14-00-44;10,0;39,0;-100;2,0;3,0;0,0;1,0;column;1,0;True;True;True;1,01600003242;True;0,700999975204
MMM1993w;game;2017-05-04-14-00-44;10,0;40,0;-100;1,0;2,0;0,0;3,0;row;1,0;False;True;False;1,382999897;True;0,598999977112
MMM1993w;game;2017-05-04-14-00-44;10,0;41,0;-100;3,0;1,0;0,0;2,0;row;1,0;False;False;False;1,41500020027;True;0,565999984741
MMM1993w;game;2017-05-04-14-00-44;10,0;42,0;-100;2,0;3,0;1,0;0,0;row;0,0;True;False;True;1,34999990463;True;1,10100007057
MMM1993w;game;2017-05-04-14-00-44;10,0;43,0;-100;3,0;0,0;1,0;2,0;row;1,0;False;False;False;1,31599998474;True;0,534999847412
MMM1993w;game;2017-05-04-14-00-44;10,0;44,0;-100;3,0;0,0;1,0;2,0;row;1,0;True;False;True;1,38400006294;True;1,23200011253
MMM1993w;game;2017-05-04-14-00-44;10,0;45,0;-100;1,0;2,0;0,0;3,0;column;0,0;False;False;False;1,48400020599;True;0,963000059128
MMM1993w;game;2017-05-04-14-00-44;10,0;46,0;-100;0,0;3,0;2,0;1,0;column;1,0;True;True;False;1,48399996758;False;0,898999929428
MMM1993w;game;2017-05-04-14-00-44;10,0;47,0;-100;1,0;2,0;3,0;0,0;column;1,0;True;True;True;1,31599998474;True;1,46600008011
MMM1993w;game;2017-05-04-14-00-44;10,0;48,0;-100;3,0;1,0;2,0;0,0;row;0,0;True;False;True;0,81500005722;True;1,125
MMM1993w;game;2017-05-04-14-00-44;11,0;1,0;100;3,0;1,0;0,0;2,0;column;1,0;True;False;True;1,16600012779;True;1,30999994278
MMM1993w;game;2017-05-04-14-00-44;11,0;2,0;100;2,0;3,0;1,0;0,0;column;0,0;False;False;False;1,7990000248;True;1,36600017548
MMM1993w;game;2017-05-04-14-00-44;11,0;3,0;100;0,0;2,0;1,0;3,0;column;0,0;True;False;False;1,09999990463;False;1,09300017357
MMM1993w;game;2017-05-04-14-00-44;11,0;4,0;100;2,0;3,0;0,0;1,0;row;1,0;True;False;True;1,80000019073;True;0,563999891281
MMM1993w;game;2017-05-04-14-00-44;11,0;5,0;100;1,0;0,0;2,0;3,0;row;1,0;True;True;True;1,46700000763;True;1,4279999733
MMM1993w;game;2017-05-04-14-00-44;11,0;6,0;100;2,0;0,0;1,0;3,0;column;1,0;False;True;False;1,5;True;1,29500007629
MMM1993w;game;2017-05-04-14-00-44;11,0;7,0;100;1,0;2,0;0,0;3,0;column;1,0;True;False;True;1,33299994469;True;0,889999866486
MMM1993w;game;2017-05-04-14-00-44;11,0;8,0;100;0,0;3,0;2,0;1,0;row;1,0;False;True;True;2,40000009537;False;0,638999938965
MMM1993w;game;2017-05-04-14-00-44;11,0;9,0;100;3,0;2,0;1,0;0,0;column;1,0;True;True;True;1,43299984932;True;1,0
MMM1993w;game;2017-05-04-14-00-44;11,0;10,0;100;2,0;3,0;0,0;1,0;column;0,0;True;True;True;1,63300013542;True;1,00199985504
MMM1993w;game;2017-05-04-14-00-44;11,0;11,0;100;2,0;1,0;3,0;0,0;column;1,0;True;True;True;1,26699995995;True;1,40600013733
MMM1993w;game;2017-05-04-14-00-44;11,0;12,0;100;0,0;3,0;2,0;1,0;row;1,0;True;True;False;1,29999995232;False;0,930000066757
MMM1993w;game;2017-05-04-14-00-44;11,0;13,0;100;3,0;2,0;1,0;0,0;row;1,0;True;True;True;3,13300013542;True;1,29399991035
MMM1993w;game;2017-05-04-14-00-44;11,0;14,0;100;2,0;3,0;0,0;1,0;row;1,0;False;True;False;1,36500000954;True;1,23099994659
MMM1993w;game;2017-05-04-14-00-44;11,0;15,0;100;3,0;1,0;0,0;2,0;column;0,0;True;True;True;2,96600008011;True;1,05999994278
MMM1993w;game;2017-05-04-14-00-44;11,0;16,0;100;2,0;0,0;1,0;3,0;row;0,0;True;False;True;0,799999952316;True;0,9359998703
MMM1993w;game;2017-05-04-14-00-44;11,0;17,0;100;2,0;1,0;3,0;0,0;column;0,0;False;True;False;1,5;True;0,729000091553
MMM1993w;game;2017-05-04-14-00-44;11,0;18,0;100;1,0;3,0;0,0;2,0;row;1,0;True;True;False;1,30000019073;False;1,19899988174
MMM1993w;game;2017-05-04-14-00-44;11,0;19,0;100;1,0;0,0;3,0;2,0;row;0,0;True;False;True;0,665000200272;True;0,631999969482
MMM1993w;game;2017-05-04-14-00-44;11,0;20,0;100;3,0;1,0;0,0;2,0;column;1,0;False;False;False;1,53400015831;True;0,898999929428
MMM1993w;game;2017-05-04-14-00-44;11,0;21,0;100;0,0;1,0;2,0;3,0;column;1,0;True;True;True;1,5;True;0,735999822617
MMM1993w;game;2017-05-04-14-00-44;11,0;22,0;100;0,0;2,0;3,0;1,0;row;1,0;False;False;False;1,46399998665;True;1,23099994659
MMM1993w;game;2017-05-04-14-00-44;11,0;23,0;100;1,0;2,0;0,0;3,0;row;0,0;False;True;False;1,367000103;True;1,13100004196
MMM1993w;game;2017-05-04-14-00-44;11,0;24,0;100;0,0;3,0;1,0;2,0;column;0,0;False;True;False;1,63400006294;True;0,697999954224
MMM1993w;game;2017-05-04-14-00-44;11,0;25,0;100;2,0;3,0;0,0;1,0;column;1,0;True;False;False;1,23199987411;False;0,609000205994
MMM1993w;game;2017-05-04-14-00-44;11,0;26,0;100;0,0;1,0;3,0;2,0;row;1,0;True;False;False;1,76399993896;False;1,46000003815
MMM1993w;game;2017-05-04-14-00-44;11,0;27,0;100;1,0;3,0;2,0;0,0;column;0,0;True;True;False;1,20000004768;False;1,49800014496
MMM1993w;game;2017-05-04-14-00-44;11,0;28,0;100;2,0;1,0;3,0;0,0;row;1,0;False;False;True;1,0;False;1,02300000191
MMM1993w;game;2017-05-04-14-00-44;11,0;29,0;100;2,0;0,0;3,0;1,0;column;0,0;True;False;True;1,70000004768;True;0,633000135422
MMM1993w;game;2017-05-04-14-00-44;11,0;30,0;100;0,0;2,0;3,0;1,0;column;1,0;True;True;False;1,43400001526;False;0,532999992371
MMM1993w;game;2017-05-04-14-00-44;11,0;31,0;100;1,0;3,0;2,0;0,0;row;1,0;True;True;True;1,16700005531;True;1,20000004768
MMM1993w;game;2017-05-04-14-00-44;11,0;32,0;100;1,0;2,0;3,0;0,0;row;1,0;False;True;False;1,26799988747;True;1,00200009346
MMM1993w;game;2017-05-04-14-00-44;11,0;33,0;100;1,0;3,0;2,0;0,0;row;1,0;False;True;True;1,76499986649;False;0,56299996376
MMM1993w;game;2017-05-04-14-00-44;11,0;34,0;100;1,0;3,0;0,0;2,0;row;0,0;True;True;True;0,733000040054;True;1,4310002327
MMM1993w;game;2017-05-04-14-00-44;11,0;35,0;100;2,0;0,0;3,0;1,0;row;0,0;True;False;True;0,733000040054;True;1,00199985504
MMM1993w;game;2017-05-04-14-00-44;11,0;36,0;100;3,0;2,0;0,0;1,0;row;0,0;True;True;True;0,733000040054;True;1,20199990273
MMM1993w;game;2017-05-04-14-00-44;11,0;37,0;100;0,0;3,0;1,0;2,0;column;0,0;True;False;True;1,56599998474;True;0,797000169754
MMM1993w;game;2017-05-04-14-00-44;11,0;38,0;100;1,0;2,0;0,0;3,0;column;1,0;False;True;False;2,36599993706;True;0,632999897003
MMM1993w;game;2017-05-04-14-00-44;11,0;39,0;100;1,0;3,0;0,0;2,0;column;0,0;False;True;False;1,66700005531;True;1,43099999428
MMM1993w;game;2017-05-04-14-00-44;11,0;40,0;100;2,0;1,0;3,0;0,0;row;1,0;True;True;True;1,86699986458;True;0,936000108719
MMM1993w;game;2017-05-04-14-00-44;11,0;41,0;100;2,0;0,0;3,0;1,0;column;0,0;False;False;False;2,1289999485;True;0,668999910355
MMM1993w;game;2017-05-04-14-00-44;11,0;42,0;100;0,0;3,0;2,0;1,0;row;0,0;True;False;True;1,16600012779;True;0,569000005722
MMM1993w;game;2017-05-04-14-00-44;11,0;43,0;100;1,0;0,0;3,0;2,0;column;0,0;True;True;False;1,46700000763;False;0,673000097275
MMM1993w;game;2017-05-04-14-00-44;11,0;44,0;100;2,0;1,0;0,0;3,0;row;1,0;False;True;True;0,93499994278;False;1,09800004959
MMM1993w;game;2017-05-04-14-00-44;11,0;45,0;100;1,0;0,0;2,0;3,0;column;1,0;False;False;False;1,19899988174;True;0,599999904633
MMM1993w;game;2017-05-04-14-00-44;11,0;46,0;100;0,0;3,0;2,0;1,0;column;1,0;True;True;True;1,36699986458;True;1,03500008583
MMM1993w;game;2017-05-04-14-00-44;11,0;47,0;100;0,0;1,0;2,0;3,0;column;0,0;True;False;True;1,06699991226;True;0,631000041962
MMM1993w;game;2017-05-04-14-00-44;11,0;48,0;100;2,0;1,0;3,0;0,0;column;0,0;True;False;True;1,53200006485;True;0,598000049591
MMM1993w;game;2017-05-04-14-00-44;12,0;1,0;1000;0,0;2,0;1,0;3,0;column;0,0;False;True;False;1,79999995232;True;0,801999807358
MMM1993w;game;2017-05-04-14-00-44;12,0;2,0;1000;2,0;0,0;3,0;1,0;column;1,0;True;True;True;1,367000103;True;1,42600011826
MMM1993w;game;2017-05-04-14-00-44;12,0;3,0;1000;3,0;2,0;1,0;0,0;row;1,0;True;True;False;1,16700005531;False;0,628000020981
MMM1993w;game;2017-05-04-14-00-44;12,0;4,0;1000;3,0;0,0;2,0;1,0;row;0,0;True;False;True;0,733000040054;True;0,767999887466
MMM1993w;game;2017-05-04-14-00-44;12,0;5,0;1000;0,0;3,0;2,0;1,0;column;1,0;False;False;True;1,03299999237;False;0,894000053406
MMM1993w;game;2017-05-04-14-00-44;12,0;6,0;1000;2,0;3,0;0,0;1,0;column;0,0;False;False;False;0,800000190735;True;0,900000095367
MMM1993w;game;2017-05-04-14-00-44;12,0;7,0;1000;2,0;1,0;3,0;0,0;row;1,0;True;True;False;0,799999952316;False;0,757999897003
MMM1993w;game;2017-05-04-14-00-44;12,0;8,0;1000;1,0;0,0;2,0;3,0;row;0,0;True;False;True;1,06599998474;True;1,16199994087
MMM1993w;game;2017-05-04-14-00-44;12,0;9,0;1000;2,0;0,0;3,0;1,0;row;1,0;True;True;True;1,26600003242;True;1,05999994278
MMM1993w;game;2017-05-04-14-00-44;12,0;10,0;1000;0,0;1,0;2,0;3,0;row;0,0;True;False;True;0,667999982834;True;0,968999862671
MMM1993w;game;2017-05-04-14-00-44;12,0;11,0;1000;3,0;1,0;2,0;0,0;column;0,0;False;False;False;1,90000009537;True;0,698999881744
MMM1993w;game;2017-05-04-14-00-44;12,0;12,0;1000;0,0;2,0;3,0;1,0;column;0,0;False;True;False;1,0;True;1,39700007439
MMM1993w;game;2017-05-04-14-00-44;12,0;13,0;1000;1,0;2,0;0,0;3,0;row;1,0;True;False;True;2,0;True;1,13199996948
MMM1993w;game;2017-05-04-14-00-44;12,0;14,0;1000;1,0;2,0;0,0;3,0;column;1,0;False;False;True;2,20000004768;False;1,43499994278
MMM1993w;game;2017-05-04-14-00-44;12,0;15,0;1000;2,0;3,0;0,0;1,0;column;1,0;True;True;True;1,56699991226;True;1,13199996948
MMM1993w;game;2017-05-04-14-00-44;12,0;16,0;1000;1,0;2,0;3,0;0,0;row;0,0;True;True;True;0,831000089645;True;1,13300013542
MMM1993w;game;2017-05-04-14-00-44;12,0;17,0;1000;1,0;2,0;0,0;3,0;row;0,0;True;True;True;0,699000120163;True;1,26900005341
MMM1993w;game;2017-05-04-14-00-44;12,0;18,0;1000;1,0;2,0;3,0;0,0;row;1,0;True;True;True;0,967000007629;True;1,26200008392
MMM1993w;game;2017-05-04-14-00-44;12,0;19,0;1000;2,0;0,0;3,0;1,0;row;1,0;False;True;False;1,73300004005;True;1,16699981689
MMM1993w;game;2017-05-04-14-00-44;12,0;20,0;1000;1,0;3,0;0,0;2,0;row;0,0;True;True;True;1,16900014877;True;0,831000089645
MMM1993w;game;2017-05-04-14-00-44;12,0;21,0;1000;0,0;2,0;3,0;1,0;column;0,0;True;False;True;1,632999897;True;1,16700005531
MMM1993w;game;2017-05-04-14-00-44;12,0;22,0;1000;2,0;1,0;3,0;0,0;column;1,0;True;False;True;1,83300018311;True;1,00400018692
MMM1993w;game;2017-05-04-14-00-44;12,0;23,0;1000;0,0;3,0;1,0;2,0;row;1,0;False;False;True;1,90000009537;False;0,592000007629
MMM1993w;game;2017-05-04-14-00-44;12,0;24,0;1000;3,0;2,0;1,0;0,0;column;0,0;True;False;True;1,40000009537;True;0,53200006485
MMM1993w;game;2017-05-04-14-00-44;12,0;25,0;1000;3,0;2,0;1,0;0,0;column;1,0;False;False;False;1,73399996758;True;1,29999995232
MMM1993w;game;2017-05-04-14-00-44;12,0;26,0;1000;0,0;1,0;2,0;3,0;column;0,0;True;False;True;2,10100007057;True;0,53400015831
MMM1993w;game;2017-05-04-14-00-44;12,0;27,0;1000;2,0;0,0;1,0;3,0;row;0,0;False;False;True;3,43300008774;False;1,26399993896
MMM1993w;game;2017-05-04-14-00-44;12,0;28,0;1000;2,0;0,0;1,0;3,0;column;0,0;False;True;False;1,16499996185;True;1,36599993706
MMM1993w;game;2017-05-04-14-00-44;12,0;29,0;1000;1,0;3,0;0,0;2,0;row;0,0;False;True;False;1,0;True;0,799000024796
MMM1993w;game;2017-05-04-14-00-44;12,0;30,0;1000;3,0;1,0;0,0;2,0;row;0,0;False;True;False;0,832999944687;True;0,835000038147
MMM1993w;game;2017-05-04-14-00-44;12,0;31,0;1000;3,0;1,0;2,0;0,0;row;0,0;True;False;True;0,699999809265;True;0,901000022888
MMM1993w;game;2017-05-04-14-00-44;12,0;32,0;1000;2,0;1,0;3,0;0,0;column;0,0;False;False;False;1,33299994469;True;1,46700000763
MMM1993w;game;2017-05-04-14-00-44;12,0;33,0;1000;1,0;0,0;3,0;2,0;column;0,0;True;False;False;1,43400001526;False;0,592000007629
MMM1993w;game;2017-05-04-14-00-44;12,0;34,0;1000;0,0;2,0;1,0;3,0;row;0,0;True;True;True;1,13300013542;True;1,0
MMM1993w;game;2017-05-04-14-00-44;12,0;35,0;1000;3,0;0,0;2,0;1,0;row;1,0;False;False;False;0,867000102997;True;0,830000162125
MMM1993w;game;2017-05-04-14-00-44;12,0;36,0;1000;2,0;0,0;3,0;1,0;row;0,0;False;True;False;1,00099992752;True;1,20199990273
MMM1993w;game;2017-05-04-14-00-44;12,0;37,0;1000;0,0;2,0;3,0;1,0;row;0,0;False;False;False;0,733000040054;True;0,801999807358
MMM1993w;game;2017-05-04-14-00-44;12,0;38,0;1000;3,0;0,0;2,0;1,0;column;1,0;False;False;True;1,33400011063;False;1,22399997711
MMM1993w;game;2017-05-04-14-00-44;12,0;39,0;1000;1,0;3,0;0,0;2,0;row;1,0;False;False;False;1,26499986649;True;1,06599998474
MMM1993w;game;2017-05-04-14-00-44;12,0;40,0;1000;3,0;1,0;2,0;0,0;row;0,0;False;True;False;1,26600003242;True;1,39499998093
MMM1993w;game;2017-05-04-14-00-44;12,0;41,0;1000;1,0;0,0;3,0;2,0;row;0,0;False;False;False;0,865999937057;True;0,832000017166
MMM1993w;game;2017-05-04-14-00-44;12,0;42,0;1000;3,0;0,0;2,0;1,0;column;1,0;True;True;True;1,43399977684;True;0,664999961853
MMM1993w;game;2017-05-04-14-00-44;12,0;43,0;1000;0,0;1,0;3,0;2,0;column;0,0;False;False;False;2,00099992752;True;0,934000015259
MMM1993w;game;2017-05-04-14-00-44;12,0;44,0;1000;0,0;3,0;2,0;1,0;row;1,0;True;True;False;1,86600017548;False;0,965000152588
MMM1993w;game;2017-05-04-14-00-44;12,0;45,0;1000;3,0;0,0;1,0;2,0;row;1,0;False;True;False;1,132999897;True;1,06399989128
MMM1993w;game;2017-05-04-14-00-44;12,0;46,0;1000;1,0;0,0;2,0;3,0;column;0,0;True;True;True;1,79999995232;True;0,838999986649
MMM1993w;game;2017-05-04-14-00-44;12,0;47,0;1000;2,0;0,0;1,0;3,0;column;1,0;True;False;True;1,13300013542;True;0,766999959946
MMM1993w;game;2017-05-04-14-00-44;12,0;48,0;1000;3,0;1,0;0,0;2,0;column;1,0;False;True;False;1,36599993706;True;0,571000099182
