Observer;Condition;SessionID;Block;Trial;COA;Color0;Color1;Color2;Color3;Target;Which;Match;FlipComplimentary;Response;RT;Correct;OnsetDelay
PHS1997w;experiment;2017-05-02-09-58-08;1,0;1,0;-100;1,0;3,0;0,0;2,0;row;0,0;True;True;True;3,38400006294;True;0,96799993515
PHS1997w;experiment;2017-05-02-09-58-08;1,0;2,0;-100;0,0;3,0;2,0;1,0;column;0,0;True;True;True;3,08099985123;True;1,03500008583
PHS1997w;experiment;2017-05-02-09-58-08;1,0;3,0;-100;1,0;0,0;3,0;2,0;row;1,0;True;False;True;2,18200016022;True;1,10500001907
PHS1997w;experiment;2017-05-02-09-58-08;1,0;4,0;-100;3,0;0,0;2,0;1,0;row;0,0;True;True;True;2,3820002079;True;0,999000072479
PHS1997w;experiment;2017-05-02-09-58-08;1,0;5,0;-100;3,0;2,0;0,0;1,0;column;1,0;False;True;False;1,0569999218;True;0,769000053406
PHS1997w;experiment;2017-05-02-09-58-08;1,0;6,0;-100;1,0;0,0;3,0;2,0;column;0,0;True;False;False;2,15400004387;False;1,50300002098
PHS1997w;experiment;2017-05-02-09-58-08;1,0;7,0;-100;0,0;3,0;2,0;1,0;row;0,0;False;False;False;1,75;True;1,10199999809
PHS1997w;experiment;2017-05-02-09-58-08;1,0;8,0;-100;0,0;2,0;3,0;1,0;row;0,0;True;True;True;1,28399991989;True;1,40100002289
PHS1997w;experiment;2017-05-02-09-58-08;1,0;9,0;-100;2,0;3,0;0,0;1,0;column;1,0;True;False;False;1,84800004959;False;1,36299991608
PHS1997w;experiment;2017-05-02-09-58-08;1,0;10,0;-100;3,0;2,0;0,0;1,0;column;0,0;True;False;True;2,83100008965;True;0,600000143051
PHS1997w;experiment;2017-05-02-09-58-08;1,0;11,0;-100;1,0;3,0;2,0;0,0;column;0,0;False;False;True;1,38100004196;False;0,590000152588
PHS1997w;experiment;2017-05-02-09-58-08;1,0;12,0;-100;1,0;0,0;2,0;3,0;row;1,0;False;True;False;2,04699993134;True;0,734999895096
PHS1997w;experiment;2017-05-02-09-58-08;1,0;13,0;-100;1,0;2,0;0,0;3,0;column;1,0;True;True;True;2,67500019073;True;0,688999891281
PHS1997w;experiment;2017-05-02-09-58-08;1,0;14,0;-100;0,0;1,0;2,0;3,0;column;0,0;False;False;True;1,98200011253;False;0,666999816895
PHS1997w;experiment;2017-05-02-09-58-08;1,0;15,0;-100;2,0;3,0;1,0;0,0;column;0,0;True;True;True;1,34899997711;True;0,702999830246
PHS1997w;experiment;2017-05-02-09-58-08;1,0;16,0;-100;3,0;0,0;2,0;1,0;row;1,0;True;False;True;1,91599988937;True;1,46799993515
PHS1997w;experiment;2017-05-02-09-58-08;1,0;17,0;-100;3,0;0,0;1,0;2,0;column;0,0;False;False;False;1,77999997139;True;0,565999984741
PHS1997w;experiment;2017-05-02-09-58-08;1,0;18,0;-100;1,0;3,0;2,0;0,0;column;1,0;True;False;True;1,58299994469;True;1,43000006676
PHS1997w;experiment;2017-05-02-09-58-08;1,0;19,0;-100;0,0;3,0;1,0;2,0;row;0,0;True;False;True;1,51599979401;True;0,638999938965
PHS1997w;experiment;2017-05-02-09-58-08;1,0;20,0;-100;2,0;1,0;3,0;0,0;column;1,0;True;False;True;1,34799981117;True;1,4399998188
PHS1997w;experiment;2017-05-02-09-58-08;1,0;21,0;-100;0,0;1,0;3,0;2,0;row;0,0;True;False;True;2,31599998474;True;1,1930000782
PHS1997w;experiment;2017-05-02-09-58-08;1,0;22,0;-100;2,0;3,0;0,0;1,0;row;0,0;False;False;False;1,21600008011;True;0,702999830246
PHS1997w;experiment;2017-05-02-09-58-08;1,0;23,0;-100;2,0;3,0;1,0;0,0;column;1,0;False;True;False;2,68299984932;True;0,801000118256
PHS1997w;experiment;2017-05-02-09-58-08;1,0;24,0;-100;2,0;1,0;0,0;3,0;column;1,0;True;False;True;1,18400001526;True;1,17199993134
PHS1997w;experiment;2017-05-02-09-58-08;1,0;25,0;-100;3,0;1,0;2,0;0,0;column;1,0;True;False;True;2,51599979401;True;0,990000009537
PHS1997w;experiment;2017-05-02-09-58-08;1,0;26,0;-100;0,0;2,0;3,0;1,0;row;0,0;False;True;True;0,982999801636;False;1,43899989128
PHS1997w;experiment;2017-05-02-09-58-08;1,0;27,0;-100;3,0;1,0;0,0;2,0;column;1,0;False;False;True;1,09899997711;False;1,03600001335
PHS1997w;experiment;2017-05-02-09-58-08;1,0;28,0;-100;0,0;2,0;3,0;1,0;column;0,0;False;True;True;1,78100013733;False;0,729999780655
PHS1997w;experiment;2017-05-02-09-58-08;1,0;29,0;-100;3,0;0,0;1,0;2,0;column;0,0;True;True;False;1,48199987411;False;0,705000162125
PHS1997w;experiment;2017-05-02-09-58-08;1,0;30,0;-100;3,0;2,0;1,0;0,0;column;0,0;True;False;False;2,48299980164;False;0,733000040054
PHS1997w;experiment;2017-05-02-09-58-08;1,0;31,0;-100;2,0;0,0;1,0;3,0;column;0,0;True;False;False;3,95399999619;False;0,53200006485
PHS1997w;experiment;2017-05-02-09-58-08;1,0;32,0;-100;3,0;1,0;0,0;2,0;row;0,0;True;False;True;2,91599988937;True;1,03300023079
PHS1997w;experiment;2017-05-02-09-58-08;1,0;33,0;-100;0,0;3,0;1,0;2,0;row;1,0;False;False;False;2,91799998283;True;0,835000038147
PHS1997w;experiment;2017-05-02-09-58-08;1,0;34,0;-100;3,0;0,0;2,0;1,0;row;1,0;False;False;True;2,88300013542;False;0,971999883652
PHS1997w;experiment;2017-05-02-09-58-08;1,0;35,0;-100;1,0;2,0;0,0;3,0;row;1,0;False;False;True;4,34899997711;False;0,992000102997
PHS1997w;experiment;2017-05-02-09-58-08;1,0;36,0;-100;2,0;0,0;3,0;1,0;column;1,0;True;True;False;4,41400003433;False;0,835999965668
PHS1997w;experiment;2017-05-02-09-58-08;1,0;37,0;-100;2,0;1,0;3,0;0,0;row;1,0;True;True;True;4,04600000381;True;0,902000188828
PHS1997w;experiment;2017-05-02-09-58-08;1,0;38,0;-100;2,0;3,0;1,0;0,0;row;1,0;True;True;True;3,77900004387;True;0,90499997139
PHS1997w;experiment;2017-05-02-09-58-08;1,0;39,0;-100;1,0;2,0;0,0;3,0;row;0,0;False;True;True;2,28299999237;False;0,56299996376
PHS1997w;experiment;2017-05-02-09-58-08;1,0;40,0;-100;1,0;2,0;0,0;3,0;row;0,0;True;False;True;2,24900007248;True;0,99799990654
PHS1997w;experiment;2017-05-02-09-58-08;1,0;41,0;-100;2,0;1,0;3,0;0,0;column;1,0;False;False;False;2,78299999237;True;0,769999980927
PHS1997w;experiment;2017-05-02-09-58-08;1,0;42,0;-100;0,0;3,0;2,0;1,0;column;0,0;False;False;False;2,98200011253;True;1,39499998093
PHS1997w;experiment;2017-05-02-09-58-08;1,0;43,0;-100;2,0;3,0;1,0;0,0;row;0,0;False;True;False;2,11500000954;True;1,47300004959
PHS1997w;experiment;2017-05-02-09-58-08;1,0;44,0;-100;0,0;2,0;1,0;3,0;row;1,0;False;True;False;3,21500015259;True;0,555000066757
PHS1997w;experiment;2017-05-02-09-58-08;1,0;45,0;-100;3,0;0,0;2,0;1,0;column;1,0;False;True;True;2,41799998283;False;0,602999925613
PHS1997w;experiment;2017-05-02-09-58-08;1,0;46,0;-100;3,0;2,0;0,0;1,0;row;0,0;True;True;True;3,71700000763;True;0,763000011444
PHS1997w;experiment;2017-05-02-09-58-08;1,0;47,0;-100;2,0;3,0;1,0;0,0;row;0,0;True;False;True;2,68099999428;True;1,39800000191
PHS1997w;experiment;2017-05-02-09-58-08;1,0;48,0;-100;0,0;1,0;3,0;2,0;row;1,0;False;True;False;3,11699986458;True;1,36400008202
PHS1997w;experiment;2017-05-02-09-58-08;2,0;1,0;100;1,0;3,0;2,0;0,0;column;0,0;False;True;False;2,53200006485;True;0,766000032425
PHS1997w;experiment;2017-05-02-09-58-08;2,0;2,0;100;2,0;3,0;0,0;1,0;column;1,0;False;True;False;2,59900021553;True;0,766000032425
PHS1997w;experiment;2017-05-02-09-58-08;2,0;3,0;100;1,0;3,0;2,0;0,0;column;1,0;False;True;False;2,06399989128;True;0,520999908447
PHS1997w;experiment;2017-05-02-09-58-08;2,0;4,0;100;0,0;2,0;1,0;3,0;row;1,0;False;False;False;3,03400015831;True;1,23799991608
PHS1997w;experiment;2017-05-02-09-58-08;2,0;5,0;100;2,0;3,0;1,0;0,0;row;0,0;True;False;True;2,16699981689;True;1,07099986076
PHS1997w;experiment;2017-05-02-09-58-08;2,0;6,0;100;3,0;1,0;2,0;0,0;column;0,0;False;True;False;2,4319999218;True;1,02999997139
PHS1997w;experiment;2017-05-02-09-58-08;2,0;7,0;100;3,0;1,0;2,0;0,0;row;0,0;True;True;False;1,76600003242;False;1,27300000191
PHS1997w;experiment;2017-05-02-09-58-08;2,0;8,0;100;2,0;0,0;1,0;3,0;row;0,0;False;False;False;2,40000009537;True;0,5609998703
PHS1997w;experiment;2017-05-02-09-58-08;2,0;9,0;100;2,0;1,0;3,0;0,0;row;1,0;True;True;False;1,96700000763;False;0,735000133514
PHS1997w;experiment;2017-05-02-09-58-08;2,0;10,0;100;3,0;2,0;0,0;1,0;row;1,0;False;True;False;1,93400001526;True;1,25999999046
PHS1997w;experiment;2017-05-02-09-58-08;2,0;11,0;100;0,0;2,0;3,0;1,0;column;0,0;True;False;True;1,33399987221;True;0,894999980927
PHS1997w;experiment;2017-05-02-09-58-08;2,0;12,0;100;0,0;1,0;2,0;3,0;column;1,0;False;True;False;2,33200001717;True;0,963000059128
PHS1997w;experiment;2017-05-02-09-58-08;2,0;13,0;100;1,0;2,0;0,0;3,0;column;0,0;False;True;True;2,367000103;False;0,669999837875
PHS1997w;experiment;2017-05-02-09-58-08;2,0;14,0;100;1,0;2,0;3,0;0,0;row;1,0;False;True;True;3,11599993706;False;1,16700005531
PHS1997w;experiment;2017-05-02-09-58-08;2,0;15,0;100;0,0;2,0;3,0;1,0;column;1,0;False;True;True;2,49899983406;False;0,900000095367
PHS1997w;experiment;2017-05-02-09-58-08;2,0;16,0;100;0,0;1,0;2,0;3,0;row;0,0;False;True;False;2,49900007248;True;1,45799994469
PHS1997w;experiment;2017-05-02-09-58-08;2,0;17,0;100;3,0;2,0;0,0;1,0;column;0,0;False;True;False;2,36599993706;True;0,893000125885
PHS1997w;experiment;2017-05-02-09-58-08;2,0;18,0;100;3,0;0,0;1,0;2,0;row;1,0;False;True;False;3,63100004196;True;1,32899999619
PHS1997w;experiment;2017-05-02-09-58-08;2,0;19,0;100;3,0;1,0;2,0;0,0;row;0,0;False;True;False;2,29999995232;True;1,39599990845
PHS1997w;experiment;2017-05-02-09-58-08;2,0;20,0;100;0,0;2,0;1,0;3,0;column;0,0;True;True;True;1,89900016785;True;1,38999986649
PHS1997w;experiment;2017-05-02-09-58-08;2,0;21,0;100;2,0;3,0;1,0;0,0;column;0,0;False;True;False;1,99900007248;True;0,831999778748
PHS1997w;experiment;2017-05-02-09-58-08;2,0;22,0;100;1,0;3,0;0,0;2,0;row;0,0;True;False;True;2,36500000954;True;0,636000156403
PHS1997w;experiment;2017-05-02-09-58-08;2,0;23,0;100;0,0;3,0;1,0;2,0;row;0,0;True;False;True;1,86599993706;True;0,870000123978
PHS1997w;experiment;2017-05-02-09-58-08;2,0;24,0;100;0,0;3,0;2,0;1,0;row;0,0;False;False;False;2,63300013542;True;1,3639998436
PHS1997w;experiment;2017-05-02-09-58-08;2,0;25,0;100;2,0;3,0;0,0;1,0;column;1,0;True;False;True;1,73199987411;True;1,32800006866
PHS1997w;experiment;2017-05-02-09-58-08;2,0;26,0;100;1,0;0,0;3,0;2,0;row;0,0;True;False;True;2,19799995422;True;0,769000053406
PHS1997w;experiment;2017-05-02-09-58-08;2,0;27,0;100;3,0;1,0;0,0;2,0;row;1,0;True;True;False;2,19900012016;False;1,36500000954
PHS1997w;experiment;2017-05-02-09-58-08;2,0;28,0;100;3,0;2,0;1,0;0,0;row;1,0;True;False;False;3,13300013542;False;0,928999900818
PHS1997w;experiment;2017-05-02-09-58-08;2,0;29,0;100;1,0;3,0;2,0;0,0;column;1,0;True;False;True;1,36599993706;True;0,873000144958
PHS1997w;experiment;2017-05-02-09-58-08;2,0;30,0;100;0,0;2,0;3,0;1,0;row;0,0;True;False;True;1,9350001812;True;1,06999993324
PHS1997w;experiment;2017-05-02-09-58-08;2,0;31,0;100;0,0;3,0;1,0;2,0;column;1,0;False;False;False;1,7990000248;True;1,26399993896
PHS1997w;experiment;2017-05-02-09-58-08;2,0;32,0;100;0,0;2,0;1,0;3,0;column;0,0;False;False;False;2,0;True;0,864000082016
PHS1997w;experiment;2017-05-02-09-58-08;2,0;33,0;100;1,0;2,0;3,0;0,0;row;1,0;True;True;False;1,79999995232;False;0,628999948502
PHS1997w;experiment;2017-05-02-09-58-08;2,0;34,0;100;3,0;0,0;2,0;1,0;row;1,0;True;False;False;1,56699991226;False;0,764000177383
PHS1997w;experiment;2017-05-02-09-58-08;2,0;35,0;100;2,0;3,0;0,0;1,0;row;1,0;True;True;False;1,26599979401;False;0,765000104904
PHS1997w;experiment;2017-05-02-09-58-08;2,0;36,0;100;1,0;0,0;3,0;2,0;row;0,0;False;False;True;1,53200006485;False;1,4279999733
PHS1997w;experiment;2017-05-02-09-58-08;2,0;37,0;100;1,0;3,0;2,0;0,0;row;1,0;True;False;False;1,99900007248;False;1,19599986076
PHS1997w;experiment;2017-05-02-09-58-08;2,0;38,0;100;0,0;2,0;3,0;1,0;column;0,0;False;False;True;1,33399987221;False;1,1970000267
PHS1997w;experiment;2017-05-02-09-58-08;2,0;39,0;100;0,0;1,0;2,0;3,0;row;1,0;False;True;False;3,03299999237;True;1,03699994087
PHS1997w;experiment;2017-05-02-09-58-08;2,0;40,0;100;3,0;0,0;1,0;2,0;row;1,0;True;False;False;1,26699995995;False;1,30099987984
PHS1997w;experiment;2017-05-02-09-58-08;2,0;41,0;100;3,0;1,0;0,0;2,0;column;0,0;False;False;False;2,03299999237;True;1,26899981499
PHS1997w;experiment;2017-05-02-09-58-08;2,0;42,0;100;3,0;0,0;1,0;2,0;column;1,0;True;True;False;2,33200001717;False;0,694000005722
PHS1997w;experiment;2017-05-02-09-58-08;2,0;43,0;100;0,0;1,0;3,0;2,0;row;1,0;True;False;True;2,30000019073;True;1,08899998665
PHS1997w;experiment;2017-05-02-09-58-08;2,0;44,0;100;3,0;0,0;1,0;2,0;column;1,0;False;True;True;3,29899978638;False;1,49699997902
PHS1997w;experiment;2017-05-02-09-58-08;2,0;45,0;100;3,0;0,0;1,0;2,0;column;0,0;True;True;True;2,1320002079;True;1,16400003433
PHS1997w;experiment;2017-05-02-09-58-08;2,0;46,0;100;1,0;2,0;0,0;3,0;row;1,0;True;True;False;3,92899990082;False;1,33099985123
PHS1997w;experiment;2017-05-02-09-58-08;2,0;47,0;100;2,0;1,0;3,0;0,0;column;1,0;True;True;True;2,83299994469;True;1,0720000267
PHS1997w;experiment;2017-05-02-09-58-08;2,0;48,0;100;2,0;1,0;3,0;0,0;row;0,0;True;False;False;3,73099994659;False;1,26999998093
PHS1997w;experiment;2017-05-02-09-58-08;3,0;1,0;1000;0,0;3,0;1,0;2,0;column;1,0;True;False;True;1,76699995995;True;1,37300014496
PHS1997w;experiment;2017-05-02-09-58-08;3,0;2,0;1000;2,0;3,0;0,0;1,0;column;0,0;True;True;True;1,59700012207;True;0,575000047684
PHS1997w;experiment;2017-05-02-09-58-08;3,0;3,0;1000;3,0;0,0;2,0;1,0;column;0,0;True;True;True;1,86699986458;True;1,19099998474
PHS1997w;experiment;2017-05-02-09-58-08;3,0;4,0;1000;3,0;0,0;1,0;2,0;row;1,0;True;False;False;1,5;False;0,832000017166
PHS1997w;experiment;2017-05-02-09-58-08;3,0;5,0;1000;1,0;2,0;3,0;0,0;row;0,0;False;True;False;1,93299984932;True;0,993999958038
PHS1997w;experiment;2017-05-02-09-58-08;3,0;6,0;1000;0,0;2,0;1,0;3,0;row;0,0;True;True;True;2,43400001526;True;0,688999891281
PHS1997w;experiment;2017-05-02-09-58-08;3,0;7,0;1000;1,0;0,0;2,0;3,0;row;1,0;True;False;True;3,19899988174;True;1,3900001049
PHS1997w;experiment;2017-05-02-09-58-08;3,0;8,0;1000;2,0;1,0;0,0;3,0;column;1,0;False;False;False;3,36400008202;True;0,924999952316
PHS1997w;experiment;2017-05-02-09-58-08;3,0;9,0;1000;0,0;1,0;3,0;2,0;column;0,0;True;True;True;1,36599993706;True;1,06299996376
PHS1997w;experiment;2017-05-02-09-58-08;3,0;10,0;1000;2,0;1,0;3,0;0,0;row;0,0;True;True;True;1,56599998474;True;0,600999832153
PHS1997w;experiment;2017-05-02-09-58-08;3,0;11,0;1000;1,0;2,0;3,0;0,0;column;1,0;False;False;True;2,09999990463;False;0,603999853134
PHS1997w;experiment;2017-05-02-09-58-08;3,0;12,0;1000;3,0;0,0;1,0;2,0;row;0,0;False;False;False;2,66600012779;True;0,664000034332
PHS1997w;experiment;2017-05-02-09-58-08;3,0;13,0;1000;2,0;1,0;3,0;0,0;row;1,0;True;False;True;1,89900016785;True;1,09799981117
PHS1997w;experiment;2017-05-02-09-58-08;3,0;14,0;1000;0,0;2,0;3,0;1,0;row;1,0;False;True;False;1,73300004005;True;0,865999937057
PHS1997w;experiment;2017-05-02-09-58-08;3,0;15,0;1000;2,0;0,0;3,0;1,0;row;1,0;False;True;False;2,03399991989;True;0,962000131607
PHS1997w;experiment;2017-05-02-09-58-08;3,0;16,0;1000;3,0;2,0;0,0;1,0;column;1,0;True;False;True;2,33299994469;True;0,536000013351
PHS1997w;experiment;2017-05-02-09-58-08;3,0;17,0;1000;3,0;1,0;0,0;2,0;column;1,0;True;False;True;1,867000103;True;0,862999916077
PHS1997w;experiment;2017-05-02-09-58-08;3,0;18,0;1000;2,0;3,0;1,0;0,0;column;1,0;False;True;False;1,86800003052;True;0,695999860764
PHS1997w;experiment;2017-05-02-09-58-08;3,0;19,0;1000;3,0;1,0;2,0;0,0;column;0,0;False;True;False;3,89699983597;True;1,36299991608
PHS1997w;experiment;2017-05-02-09-58-08;3,0;20,0;1000;2,0;3,0;1,0;0,0;column;0,0;False;False;False;2,90000009537;True;0,529000043869
PHS1997w;experiment;2017-05-02-09-58-08;3,0;21,0;1000;0,0;2,0;3,0;1,0;column;1,0;False;False;False;1,73300004005;True;0,973999977112
PHS1997w;experiment;2017-05-02-09-58-08;3,0;22,0;1000;2,0;3,0;1,0;0,0;row;1,0;False;True;False;2,53200006485;True;1,03999996185
PHS1997w;experiment;2017-05-02-09-58-08;3,0;23,0;1000;0,0;3,0;2,0;1,0;row;1,0;True;False;True;1,96499991417;True;0,895999908447
PHS1997w;experiment;2017-05-02-09-58-08;3,0;24,0;1000;1,0;2,0;0,0;3,0;row;0,0;False;False;False;3,26699995995;True;0,736000061035
PHS1997w;experiment;2017-05-02-09-58-08;3,0;25,0;1000;0,0;3,0;2,0;1,0;column;1,0;False;False;False;2,96500015259;True;1,43399977684
PHS1997w;experiment;2017-05-02-09-58-08;3,0;26,0;1000;0,0;3,0;2,0;1,0;row;1,0;False;True;False;1,90100002289;True;1,15799999237
PHS1997w;experiment;2017-05-02-09-58-08;3,0;27,0;1000;3,0;2,0;0,0;1,0;row;0,0;True;False;True;1,80000019073;True;1,09100008011
PHS1997w;experiment;2017-05-02-09-58-08;3,0;28,0;1000;2,0;1,0;0,0;3,0;row;0,0;True;False;True;3,83299994469;True;0,961999893188
PHS1997w;experiment;2017-05-02-09-58-08;3,0;29,0;1000;1,0;0,0;2,0;3,0;column;1,0;True;True;True;3,02899980545;True;1,4279999733
PHS1997w;experiment;2017-05-02-09-58-08;3,0;30,0;1000;2,0;0,0;1,0;3,0;row;1,0;False;True;False;2,19799995422;True;1,23000001907
PHS1997w;experiment;2017-05-02-09-58-08;3,0;31,0;1000;0,0;1,0;3,0;2,0;column;0,0;False;True;False;3,36599993706;True;0,799999952316
PHS1997w;experiment;2017-05-02-09-58-08;3,0;32,0;1000;1,0;2,0;0,0;3,0;row;1,0;True;False;True;1,66700005531;True;1,09899997711
PHS1997w;experiment;2017-05-02-09-58-08;3,0;33,0;1000;3,0;0,0;2,0;1,0;column;1,0;True;False;True;2,90000009537;True;1,49700021744
PHS1997w;experiment;2017-05-02-09-58-08;3,0;34,0;1000;1,0;2,0;3,0;0,0;column;0,0;False;True;False;3,23399996758;True;0,730999946594
PHS1997w;experiment;2017-05-02-09-58-08;3,0;35,0;1000;3,0;1,0;0,0;2,0;row;0,0;True;False;False;1,59800004959;False;0,835999965668
PHS1997w;experiment;2017-05-02-09-58-08;3,0;36,0;1000;0,0;1,0;3,0;2,0;row;1,0;False;False;True;2,36599993706;False;1,49499988556
PHS1997w;experiment;2017-05-02-09-58-08;3,0;37,0;1000;3,0;2,0;1,0;0,0;row;1,0;False;True;False;2,56699991226;True;1,36500000954
PHS1997w;experiment;2017-05-02-09-58-08;3,0;38,0;1000;0,0;3,0;2,0;1,0;row;0,0;False;True;False;1,53600001335;True;0,628000020981
PHS1997w;experiment;2017-05-02-09-58-08;3,0;39,0;1000;0,0;2,0;1,0;3,0;column;1,0;True;True;False;1,66700005531;False;0,635999917984
PHS1997w;experiment;2017-05-02-09-58-08;3,0;40,0;1000;2,0;0,0;3,0;1,0;column;0,0;True;False;True;2,60100007057;True;1,25899982452
PHS1997w;experiment;2017-05-02-09-58-08;3,0;41,0;1000;1,0;0,0;2,0;3,0;row;0,0;True;False;False;1,9319999218;False;0,902000188828
PHS1997w;experiment;2017-05-02-09-58-08;3,0;42,0;1000;2,0;0,0;1,0;3,0;row;0,0;True;False;False;2,93299984932;False;1,16400003433
PHS1997w;experiment;2017-05-02-09-58-08;3,0;43,0;1000;2,0;3,0;0,0;1,0;row;1,0;False;True;False;2,33200001717;True;0,972999811172
PHS1997w;experiment;2017-05-02-09-58-08;3,0;44,0;1000;1,0;0,0;3,0;2,0;column;0,0;False;False;False;2,86600017548;True;0,53400015831
PHS1997w;experiment;2017-05-02-09-58-08;3,0;45,0;1000;3,0;2,0;1,0;0,0;column;0,0;True;True;True;3,73199987411;True;0,966000080109
PHS1997w;experiment;2017-05-02-09-58-08;3,0;46,0;1000;1,0;0,0;2,0;3,0;column;1,0;False;True;False;1,92900013924;True;0,533999919891
PHS1997w;experiment;2017-05-02-09-58-08;3,0;47,0;1000;0,0;2,0;1,0;3,0;column;0,0;True;True;True;2,06699991226;True;1,05900001526
PHS1997w;experiment;2017-05-02-09-58-08;3,0;48,0;1000;2,0;1,0;0,0;3,0;row;1,0;False;False;False;1,63300013542;True;0,526999950409
PHS1997w;experiment;2017-05-02-09-58-08;4,0;1,0;100;1,0;2,0;0,0;3,0;column;1,0;True;True;True;2,29999995232;True;1,12699985504
PHS1997w;experiment;2017-05-02-09-58-08;4,0;2,0;100;3,0;0,0;1,0;2,0;row;0,0;True;True;True;2,56699991226;True;0,962999820709
PHS1997w;experiment;2017-05-02-09-58-08;4,0;3,0;100;3,0;0,0;2,0;1,0;row;0,0;False;False;False;2,80000019073;True;0,865000009537
PHS1997w;experiment;2017-05-02-09-58-08;4,0;4,0;100;2,0;0,0;1,0;3,0;column;1,0;True;False;True;2,29999995232;True;0,767999887466
PHS1997w;experiment;2017-05-02-09-58-08;4,0;5,0;100;1,0;0,0;3,0;2,0;column;0,0;True;False;True;5,23399996758;True;1,23000001907
PHS1997w;experiment;2017-05-02-09-58-08;4,0;6,0;100;3,0;1,0;0,0;2,0;column;1,0;True;False;True;2,46600008011;True;1,00300002098
PHS1997w;experiment;2017-05-02-09-58-08;4,0;7,0;100;0,0;3,0;2,0;1,0;column;1,0;False;False;False;2,632999897;True;0,664999961853
PHS1997w;experiment;2017-05-02-09-58-08;4,0;8,0;100;1,0;2,0;3,0;0,0;column;1,0;True;False;True;2,86699986458;True;1,19799995422
PHS1997w;experiment;2017-05-02-09-58-08;4,0;9,0;100;2,0;3,0;0,0;1,0;column;0,0;False;True;False;2,03299999237;True;1,39800000191
PHS1997w;experiment;2017-05-02-09-58-08;4,0;10,0;100;3,0;2,0;0,0;1,0;row;0,0;False;False;False;2,13100004196;True;0,763999938965
PHS1997w;experiment;2017-05-02-09-58-08;4,0;11,0;100;0,0;3,0;1,0;2,0;column;1,0;True;False;True;1,9319999218;True;1,39899992943
PHS1997w;experiment;2017-05-02-09-58-08;4,0;12,0;100;2,0;0,0;3,0;1,0;column;0,0;False;True;False;2,46700000763;True;0,865000009537
PHS1997w;experiment;2017-05-02-09-58-08;4,0;13,0;100;2,0;3,0;0,0;1,0;row;0,0;True;False;True;1,59899997711;True;1,19599986076
PHS1997w;experiment;2017-05-02-09-58-08;4,0;14,0;100;0,0;1,0;3,0;2,0;row;0,0;False;False;False;1,56699991226;True;1,45799994469
PHS1997w;experiment;2017-05-02-09-58-08;4,0;15,0;100;2,0;1,0;3,0;0,0;column;0,0;False;False;False;1,39900016785;True;1,49699997902
PHS1997w;experiment;2017-05-02-09-58-08;4,0;16,0;100;2,0;0,0;1,0;3,0;column;1,0;False;False;False;1,76699995995;True;0,59500002861
PHS1997w;experiment;2017-05-02-09-58-08;4,0;17,0;100;0,0;1,0;2,0;3,0;column;0,0;True;True;True;2,0;True;1,29700016975
PHS1997w;experiment;2017-05-02-09-58-08;4,0;18,0;100;1,0;3,0;2,0;0,0;row;1,0;False;False;False;1,90100002289;True;0,631999969482
PHS1997w;experiment;2017-05-02-09-58-08;4,0;19,0;100;2,0;0,0;1,0;3,0;column;0,0;True;False;True;1,96799993515;True;1,45600008965
PHS1997w;experiment;2017-05-02-09-58-08;4,0;20,0;100;3,0;2,0;0,0;1,0;column;1,0;False;False;False;2,0649998188;True;0,895999908447
PHS1997w;experiment;2017-05-02-09-58-08;4,0;21,0;100;3,0;1,0;0,0;2,0;column;0,0;True;True;False;2,02900004387;False;1,15499997139
PHS1997w;experiment;2017-05-02-09-58-08;4,0;22,0;100;3,0;2,0;1,0;0,0;row;0,0;True;True;True;1,69799995422;True;0,733999967575
PHS1997w;experiment;2017-05-02-09-58-08;4,0;23,0;100;2,0;1,0;0,0;3,0;row;1,0;False;False;False;2,16499996185;True;0,529000043869
PHS1997w;experiment;2017-05-02-09-58-08;4,0;24,0;100;1,0;2,0;0,0;3,0;column;1,0;False;False;True;4,39400005341;False;0,835000038147
PHS1997w;experiment;2017-05-02-09-58-08;4,0;25,0;100;1,0;3,0;2,0;0,0;column;0,0;True;True;True;1,90099978447;True;1,36299991608
PHS1997w;experiment;2017-05-02-09-58-08;4,0;26,0;100;2,0;0,0;3,0;1,0;row;1,0;False;True;False;2,03200006485;True;1,48300004005
PHS1997w;experiment;2017-05-02-09-58-08;4,0;27,0;100;0,0;3,0;1,0;2,0;row;1,0;False;True;False;1,79999995232;True;0,99799990654
PHS1997w;experiment;2017-05-02-09-58-08;4,0;28,0;100;2,0;0,0;3,0;1,0;row;0,0;False;True;False;1,10000014305;True;0,5640001297
PHS1997w;experiment;2017-05-02-09-58-08;4,0;29,0;100;1,0;0,0;2,0;3,0;column;0,0;True;True;True;1,4319999218;True;1,0680000782
PHS1997w;experiment;2017-05-02-09-58-08;4,0;30,0;100;1,0;2,0;3,0;0,0;row;0,0;False;False;True;1,63399982452;False;0,733999967575
PHS1997w;experiment;2017-05-02-09-58-08;4,0;31,0;100;3,0;1,0;2,0;0,0;column;1,0;True;False;True;1,89699983597;True;1,50099992752
PHS1997w;experiment;2017-05-02-09-58-08;4,0;32,0;100;1,0;0,0;2,0;3,0;column;0,0;False;False;False;1,86800003052;True;0,52999997139
PHS1997w;experiment;2017-05-02-09-58-08;4,0;33,0;100;3,0;0,0;2,0;1,0;row;0,0;True;True;True;2,46600008011;True;1,132999897
PHS1997w;experiment;2017-05-02-09-58-08;4,0;34,0;100;1,0;0,0;2,0;3,0;row;1,0;False;False;False;1,16400003433;True;0,632999897003
PHS1997w;experiment;2017-05-02-09-58-08;4,0;35,0;100;1,0;0,0;2,0;3,0;column;1,0;True;False;True;1,93400001526;True;0,5640001297
PHS1997w;experiment;2017-05-02-09-58-08;4,0;36,0;100;0,0;3,0;1,0;2,0;row;0,0;False;True;False;1,63499999046;True;0,591000080109
PHS1997w;experiment;2017-05-02-09-58-08;4,0;37,0;100;3,0;1,0;2,0;0,0;row;1,0;False;False;False;1,73300004005;True;0,922000169754
PHS1997w;experiment;2017-05-02-09-58-08;4,0;38,0;100;1,0;2,0;3,0;0,0;column;0,0;False;True;False;1,66599988937;True;1,06100010872
PHS1997w;experiment;2017-05-02-09-58-08;4,0;39,0;100;3,0;2,0;0,0;1,0;row;1,0;True;True;True;1,632999897;True;0,698999881744
PHS1997w;experiment;2017-05-02-09-58-08;4,0;40,0;100;0,0;2,0;3,0;1,0;column;1,0;True;True;True;2,70000004768;True;1,11000013351
PHS1997w;experiment;2017-05-02-09-58-08;4,0;41,0;100;1,0;0,0;2,0;3,0;row;0,0;False;True;False;1,90000009537;True;1,47099995613
PHS1997w;experiment;2017-05-02-09-58-08;4,0;42,0;100;2,0;3,0;1,0;0,0;column;1,0;True;True;True;2,9319999218;True;1,28999996185
PHS1997w;experiment;2017-05-02-09-58-08;4,0;43,0;100;1,0;2,0;0,0;3,0;row;0,0;True;False;True;1,76700019836;True;1,42299985886
PHS1997w;experiment;2017-05-02-09-58-08;4,0;44,0;100;2,0;0,0;3,0;1,0;row;1,0;True;False;True;1,89999985695;True;0,696999788284
PHS1997w;experiment;2017-05-02-09-58-08;4,0;45,0;100;1,0;2,0;3,0;0,0;column;0,0;True;True;True;2,83200001717;True;1,30200004578
PHS1997w;experiment;2017-05-02-09-58-08;4,0;46,0;100;1,0;0,0;2,0;3,0;row;1,0;True;False;True;2,33400011063;True;0,603000164032
PHS1997w;experiment;2017-05-02-09-58-08;4,0;47,0;100;0,0;1,0;2,0;3,0;row;1,0;True;True;False;1,70000004768;False;0,664000034332
PHS1997w;experiment;2017-05-02-09-58-08;4,0;48,0;100;1,0;0,0;3,0;2,0;column;1,0;False;True;True;1,83299994469;False;1,09000015259
PHS1997w;experiment;2017-05-02-09-58-08;5,0;1,0;1000;3,0;1,0;2,0;0,0;row;1,0;True;False;False;1,90000009537;False;0,832000017166
PHS1997w;experiment;2017-05-02-09-58-08;5,0;2,0;1000;3,0;0,0;2,0;1,0;row;1,0;True;True;True;2,60000014305;True;1,13000011444
PHS1997w;experiment;2017-05-02-09-58-08;5,0;3,0;1000;1,0;3,0;2,0;0,0;row;1,0;False;False;False;1,89899992943;True;0,837000131607
PHS1997w;experiment;2017-05-02-09-58-08;5,0;4,0;1000;1,0;3,0;2,0;0,0;column;0,0;True;True;True;1,93299984932;True;0,663000106812
PHS1997w;experiment;2017-05-02-09-58-08;5,0;5,0;1000;3,0;0,0;2,0;1,0;column;1,0;False;True;False;1,83400011063;True;0,831000089645
PHS1997w;experiment;2017-05-02-09-58-08;5,0;6,0;1000;2,0;0,0;1,0;3,0;column;0,0;True;False;True;1,89700007439;True;1,03200006485
PHS1997w;experiment;2017-05-02-09-58-08;5,0;7,0;1000;2,0;1,0;3,0;0,0;row;0,0;False;True;False;3,2990000248;True;1,06900000572
PHS1997w;experiment;2017-05-02-09-58-08;5,0;8,0;1000;0,0;2,0;3,0;1,0;row;0,0;True;False;True;1,76699995995;True;0,56299996376
PHS1997w;experiment;2017-05-02-09-58-08;5,0;9,0;1000;1,0;2,0;0,0;3,0;column;0,0;False;True;False;2,39899992943;True;1,40100002289
PHS1997w;experiment;2017-05-02-09-58-08;5,0;10,0;1000;3,0;1,0;2,0;0,0;row;0,0;True;True;True;1,79999995232;True;0,962999820709
PHS1997w;experiment;2017-05-02-09-58-08;5,0;11,0;1000;0,0;3,0;1,0;2,0;row;1,0;True;False;False;1,30000019073;False;1,13300013542
PHS1997w;experiment;2017-05-02-09-58-08;5,0;12,0;1000;1,0;3,0;2,0;0,0;column;1,0;False;False;True;2,53199982643;False;0,529000043869
PHS1997w;experiment;2017-05-02-09-58-08;5,0;13,0;1000;2,0;0,0;1,0;3,0;column;0,0;False;True;False;1,86699986458;True;1,03699994087
PHS1997w;experiment;2017-05-02-09-58-08;5,0;14,0;1000;2,0;0,0;3,0;1,0;column;0,0;False;True;False;1,86699986458;True;0,771000146866
PHS1997w;experiment;2017-05-02-09-58-08;5,0;15,0;1000;1,0;3,0;0,0;2,0;column;1,0;False;True;False;1,99900007248;True;0,555000066757
PHS1997w;experiment;2017-05-02-09-58-08;5,0;16,0;1000;3,0;1,0;2,0;0,0;column;0,0;True;True;True;1,46600008011;True;1,43300008774
PHS1997w;experiment;2017-05-02-09-58-08;5,0;17,0;1000;0,0;2,0;3,0;1,0;row;0,0;False;False;False;1,29999995232;True;0,929000139236
PHS1997w;experiment;2017-05-02-09-58-08;5,0;18,0;1000;3,0;0,0;1,0;2,0;row;1,0;False;False;False;1,0;True;0,786000013351
PHS1997w;experiment;2017-05-02-09-58-08;5,0;19,0;1000;0,0;2,0;1,0;3,0;row;0,0;False;False;False;2,53099989891;True;0,631999969482
PHS1997w;experiment;2017-05-02-09-58-08;5,0;20,0;1000;2,0;3,0;0,0;1,0;column;1,0;True;True;False;1,13199996948;False;1,37200021744
PHS1997w;experiment;2017-05-02-09-58-08;5,0;21,0;1000;1,0;3,0;0,0;2,0;column;1,0;True;True;False;3,46900010109;False;0,625
PHS1997w;experiment;2017-05-02-09-58-08;5,0;22,0;1000;3,0;0,0;1,0;2,0;column;0,0;False;False;False;2,19799995422;True;1,3630001545
PHS1997w;experiment;2017-05-02-09-58-08;5,0;23,0;1000;0,0;3,0;1,0;2,0;row;0,0;True;True;False;2,26600003242;False;1,03299999237
PHS1997w;experiment;2017-05-02-09-58-08;5,0;24,0;1000;0,0;1,0;2,0;3,0;column;0,0;True;True;True;1,39899992943;True;0,924000024796
PHS1997w;experiment;2017-05-02-09-58-08;5,0;25,0;1000;2,0;1,0;3,0;0,0;column;1,0;True;False;True;2,16700005531;True;1,26300001144
PHS1997w;experiment;2017-05-02-09-58-08;5,0;26,0;1000;1,0;3,0;0,0;2,0;row;1,0;False;True;False;1,46600008011;True;1,22699999809
PHS1997w;experiment;2017-05-02-09-58-08;5,0;27,0;1000;3,0;2,0;1,0;0,0;row;0,0;True;True;True;2,23399996758;True;0,691999912262
PHS1997w;experiment;2017-05-02-09-58-08;5,0;28,0;1000;3,0;2,0;1,0;0,0;column;1,0;True;False;True;2,16499996185;True;1,17300009727
PHS1997w;experiment;2017-05-02-09-58-08;5,0;29,0;1000;0,0;3,0;2,0;1,0;row;0,0;True;True;True;1,33400011063;True;0,595999956131
PHS1997w;experiment;2017-05-02-09-58-08;5,0;30,0;1000;2,0;1,0;3,0;0,0;row;1,0;False;True;False;2,60899996758;True;1,49900007248
PHS1997w;experiment;2017-05-02-09-58-08;5,0;31,0;1000;1,0;3,0;2,0;0,0;row;0,0;False;False;False;2,20000004768;True;1,1970000267
PHS1997w;experiment;2017-05-02-09-58-08;5,0;32,0;1000;2,0;0,0;3,0;1,0;column;1,0;True;False;True;1,63400006294;True;0,965000152588
PHS1997w;experiment;2017-05-02-09-58-08;5,0;33,0;1000;1,0;3,0;0,0;2,0;row;0,0;True;True;True;1,56599998474;True;0,528000116348
PHS1997w;experiment;2017-05-02-09-58-08;5,0;34,0;1000;2,0;1,0;0,0;3,0;row;1,0;True;True;False;1,36600017548;False;1,23100018501
PHS1997w;experiment;2017-05-02-09-58-08;5,0;35,0;1000;3,0;0,0;2,0;1,0;column;0,0;False;False;False;1,86699986458;True;0,963000059128
PHS1997w;experiment;2017-05-02-09-58-08;5,0;36,0;1000;3,0;0,0;2,0;1,0;row;0,0;False;True;False;1,53499984741;True;1,0609998703
PHS1997w;experiment;2017-05-02-09-58-08;5,0;37,0;1000;0,0;1,0;3,0;2,0;row;0,0;False;True;False;1,23200011253;True;0,564999818802
PHS1997w;experiment;2017-05-02-09-58-08;5,0;38,0;1000;0,0;3,0;1,0;2,0;column;1,0;False;False;False;2,03100013733;True;0,56299996376
PHS1997w;experiment;2017-05-02-09-58-08;5,0;39,0;1000;1,0;2,0;0,0;3,0;column;1,0;True;True;False;1,39999985695;False;1,3639998436
PHS1997w;experiment;2017-05-02-09-58-08;5,0;40,0;1000;0,0;2,0;1,0;3,0;row;1,0;False;True;False;1,0;True;1,20300006866
PHS1997w;experiment;2017-05-02-09-58-08;5,0;41,0;1000;1,0;0,0;3,0;2,0;row;1,0;True;False;True;2,66499996185;True;1,45899987221
PHS1997w;experiment;2017-05-02-09-58-08;5,0;42,0;1000;0,0;1,0;2,0;3,0;row;1,0;True;False;True;2,36699986458;True;1,26800012589
PHS1997w;experiment;2017-05-02-09-58-08;5,0;43,0;1000;2,0;0,0;1,0;3,0;row;0,0;False;True;False;1,367000103;True;1,46600008011
PHS1997w;experiment;2017-05-02-09-58-08;5,0;44,0;1000;2,0;1,0;0,0;3,0;column;1,0;True;True;False;1,63400006294;False;0,603000164032
PHS1997w;experiment;2017-05-02-09-58-08;5,0;45,0;1000;0,0;1,0;3,0;2,0;column;1,0;False;False;True;2,33400011063;False;0,59700012207
PHS1997w;experiment;2017-05-02-09-58-08;5,0;46,0;1000;0,0;3,0;1,0;2,0;row;0,0;False;False;False;2,06599998474;True;1,16100001335
PHS1997w;experiment;2017-05-02-09-58-08;5,0;47,0;1000;1,0;2,0;0,0;3,0;column;0,0;True;False;False;2,20000004768;False;0,671000003815
PHS1997w;experiment;2017-05-02-09-58-08;5,0;48,0;1000;1,0;0,0;3,0;2,0;column;1,0;True;False;True;3,06599998474;True;1,32699990273
PHS1997w;experiment;2017-05-02-09-58-08;6,0;1,0;-100;1,0;0,0;2,0;3,0;column;1,0;True;True;False;1,64899992943;False;1,10000014305
PHS1997w;experiment;2017-05-02-09-58-08;6,0;2,0;-100;1,0;2,0;3,0;0,0;column;1,0;False;True;False;2,81699991226;True;0,763999938965
PHS1997w;experiment;2017-05-02-09-58-08;6,0;3,0;-100;1,0;0,0;2,0;3,0;row;0,0;False;True;False;1,81700015068;True;1,15700006485
PHS1997w;experiment;2017-05-02-09-58-08;6,0;4,0;-100;3,0;1,0;2,0;0,0;row;1,0;False;True;False;1,21700000763;True;1,03600001335
PHS1997w;experiment;2017-05-02-09-58-08;6,0;5,0;-100;3,0;1,0;2,0;0,0;row;0,0;True;False;True;1,1819999218;True;0,96799993515
PHS1997w;experiment;2017-05-02-09-58-08;6,0;6,0;-100;3,0;0,0;1,0;2,0;row;1,0;False;False;False;2,00499987602;True;0,758999824524
PHS1997w;experiment;2017-05-02-09-58-08;6,0;7,0;-100;3,0;2,0;0,0;1,0;row;1,0;True;False;True;1,81699991226;True;0,99599981308
PHS1997w;experiment;2017-05-02-09-58-08;6,0;8,0;-100;0,0;1,0;2,0;3,0;row;0,0;True;False;True;2,04899978638;True;1,26300001144
PHS1997w;experiment;2017-05-02-09-58-08;6,0;9,0;-100;1,0;3,0;0,0;2,0;row;1,0;False;True;True;1,38199996948;False;1,3639998436
PHS1997w;experiment;2017-05-02-09-58-08;6,0;10,0;-100;0,0;2,0;1,0;3,0;row;0,0;False;False;False;2,04799985886;True;0,69000005722
PHS1997w;experiment;2017-05-02-09-58-08;6,0;11,0;-100;0,0;1,0;2,0;3,0;column;1,0;False;True;False;1,882999897;True;0,665999889374
PHS1997w;experiment;2017-05-02-09-58-08;6,0;12,0;-100;1,0;0,0;2,0;3,0;row;0,0;True;False;True;1,64899992943;True;1,29699993134
PHS1997w;experiment;2017-05-02-09-58-08;6,0;13,0;-100;2,0;3,0;0,0;1,0;row;0,0;True;False;True;1,48300004005;True;1,46499991417
PHS1997w;experiment;2017-05-02-09-58-08;6,0;14,0;-100;1,0;3,0;0,0;2,0;row;0,0;False;True;False;1,44899988174;True;0,766000032425
PHS1997w;experiment;2017-05-02-09-58-08;6,0;15,0;-100;2,0;1,0;3,0;0,0;row;0,0;True;False;True;1,34799981117;True;1,26200008392
PHS1997w;experiment;2017-05-02-09-58-08;6,0;16,0;-100;3,0;0,0;1,0;2,0;row;0,0;True;False;True;1,78200006485;True;1,4889998436
PHS1997w;experiment;2017-05-02-09-58-08;6,0;17,0;-100;2,0;0,0;3,0;1,0;column;1,0;False;True;False;1,21700000763;True;0,663999795914
PHS1997w;experiment;2017-05-02-09-58-08;6,0;18,0;-100;2,0;3,0;1,0;0,0;column;1,0;True;False;True;1,18300008774;True;0,698999881744
PHS1997w;experiment;2017-05-02-09-58-08;6,0;19,0;-100;1,0;3,0;2,0;0,0;column;0,0;True;False;True;1,78299999237;True;1,09999990463
PHS1997w;experiment;2017-05-02-09-58-08;6,0;20,0;-100;2,0;0,0;3,0;1,0;column;0,0;True;False;True;0,914999961853;True;1,4240000248
PHS1997w;experiment;2017-05-02-09-58-08;6,0;21,0;-100;1,0;0,0;3,0;2,0;column;1,0;False;False;False;1,54800009727;True;0,999000072479
PHS1997w;experiment;2017-05-02-09-58-08;6,0;22,0;-100;3,0;1,0;2,0;0,0;row;0,0;False;False;False;1,31299996376;True;1,20300006866
PHS1997w;experiment;2017-05-02-09-58-08;6,0;23,0;-100;1,0;3,0;0,0;2,0;row;1,0;True;True;True;1,25099992752;True;1,36599993706
PHS1997w;experiment;2017-05-02-09-58-08;6,0;24,0;-100;2,0;0,0;1,0;3,0;column;0,0;False;True;False;1,01700019836;True;1,49699997902
PHS1997w;experiment;2017-05-02-09-58-08;6,0;25,0;-100;2,0;0,0;1,0;3,0;column;1,0;False;True;False;1,38300013542;True;1,23399996758
PHS1997w;experiment;2017-05-02-09-58-08;6,0;26,0;-100;0,0;1,0;2,0;3,0;column;1,0;True;False;False;0,916000127792;False;0,634999990463
PHS1997w;experiment;2017-05-02-09-58-08;6,0;27,0;-100;2,0;0,0;1,0;3,0;row;1,0;False;False;False;0,849999904633;True;1,46199989319
PHS1997w;experiment;2017-05-02-09-58-08;6,0;28,0;-100;3,0;2,0;1,0;0,0;row;1,0;False;True;False;1,08200001717;True;1,33599996567
PHS1997w;experiment;2017-05-02-09-58-08;6,0;29,0;-100;2,0;1,0;3,0;0,0;row;0,0;False;True;False;1,38199996948;True;0,567999839783
PHS1997w;experiment;2017-05-02-09-58-08;6,0;30,0;-100;3,0;0,0;1,0;2,0;row;1,0;True;True;True;1,75;True;1,43099999428
PHS1997w;experiment;2017-05-02-09-58-08;6,0;31,0;-100;3,0;0,0;2,0;1,0;column;1,0;True;True;False;1,14700007439;False;1,49900007248
PHS1997w;experiment;2017-05-02-09-58-08;6,0;32,0;-100;2,0;0,0;1,0;3,0;row;0,0;True;False;True;1,88100004196;True;0,729000091553
PHS1997w;experiment;2017-05-02-09-58-08;6,0;33,0;-100;3,0;0,0;2,0;1,0;column;0,0;False;False;False;1,34699988365;True;0,53200006485
PHS1997w;experiment;2017-05-02-09-58-08;6,0;34,0;-100;0,0;3,0;2,0;1,0;column;1,0;False;True;False;1,34899997711;True;1,06699991226
PHS1997w;experiment;2017-05-02-09-58-08;6,0;35,0;-100;2,0;0,0;3,0;1,0;row;1,0;True;False;True;1,14899992943;True;0,969000101089
PHS1997w;experiment;2017-05-02-09-58-08;6,0;36,0;-100;2,0;3,0;1,0;0,0;row;1,0;False;False;False;1,71700000763;True;0,834000110626
PHS1997w;experiment;2017-05-02-09-58-08;6,0;37,0;-100;1,0;2,0;3,0;0,0;column;0,0;False;True;False;1,4470000267;True;0,625
PHS1997w;experiment;2017-05-02-09-58-08;6,0;38,0;-100;3,0;1,0;0,0;2,0;row;1,0;False;True;False;0,916000127792;True;0,961999893188
PHS1997w;experiment;2017-05-02-09-58-08;6,0;39,0;-100;0,0;1,0;2,0;3,0;row;1,0;True;True;True;1,28099989891;True;1,20399999619
PHS1997w;experiment;2017-05-02-09-58-08;6,0;40,0;-100;0,0;3,0;1,0;2,0;column;1,0;True;False;True;1,01699995995;True;1,25900006294
PHS1997w;experiment;2017-05-02-09-58-08;6,0;41,0;-100;2,0;1,0;3,0;0,0;column;0,0;True;False;True;0,883000135422;True;1,16599988937
PHS1997w;experiment;2017-05-02-09-58-08;6,0;42,0;-100;0,0;2,0;3,0;1,0;column;1,0;True;True;True;1,64800000191;True;0,572000026703
PHS1997w;experiment;2017-05-02-09-58-08;6,0;43,0;-100;2,0;3,0;0,0;1,0;column;0,0;False;True;False;1,18400001526;True;0,59700012207
PHS1997w;experiment;2017-05-02-09-58-08;6,0;44,0;-100;3,0;0,0;2,0;1,0;row;0,0;False;True;False;1,31699991226;True;0,53200006485
PHS1997w;experiment;2017-05-02-09-58-08;6,0;45,0;-100;2,0;1,0;0,0;3,0;row;0,0;False;False;False;1,14800000191;True;1,26300001144
PHS1997w;experiment;2017-05-02-09-58-08;6,0;46,0;-100;1,0;2,0;3,0;0,0;row;0,0;True;True;True;1,01699995995;True;1,03299999237
PHS1997w;experiment;2017-05-02-09-58-08;6,0;47,0;-100;0,0;3,0;2,0;1,0;row;1,0;False;True;False;1,05100011826;True;1,40000009537
PHS1997w;experiment;2017-05-02-09-58-08;6,0;48,0;-100;2,0;3,0;0,0;1,0;column;1,0;False;True;False;0,982000112534;True;0,597999811172
PHS1997w;experiment;2017-05-02-09-58-08;7,0;1,0;-100;1,0;2,0;0,0;3,0;row;1,0;True;False;True;1,5150001049;True;0,93700003624
PHS1997w;experiment;2017-05-02-09-58-08;7,0;2,0;-100;1,0;2,0;3,0;0,0;row;1,0;False;True;False;0,947000026703;True;1,46000003815
PHS1997w;experiment;2017-05-02-09-58-08;7,0;3,0;-100;3,0;1,0;0,0;2,0;row;0,0;False;False;False;1,01699995995;True;1,19800019264
PHS1997w;experiment;2017-05-02-09-58-08;7,0;4,0;-100;1,0;0,0;3,0;2,0;column;1,0;True;False;True;1,0150001049;True;1,19799995422
PHS1997w;experiment;2017-05-02-09-58-08;7,0;5,0;-100;2,0;0,0;3,0;1,0;column;0,0;False;True;False;0,750999927521;True;1,49400019646
PHS1997w;experiment;2017-05-02-09-58-08;7,0;6,0;-100;2,0;0,0;1,0;3,0;row;0,0;False;False;False;0,950999975204;True;1,29699993134
PHS1997w;experiment;2017-05-02-09-58-08;7,0;7,0;-100;2,0;1,0;0,0;3,0;row;1,0;True;True;True;1,41599988937;True;0,899000167847
PHS1997w;experiment;2017-05-02-09-58-08;7,0;8,0;-100;3,0;1,0;0,0;2,0;column;1,0;True;False;True;1,08299994469;True;0,733000040054
PHS1997w;experiment;2017-05-02-09-58-08;7,0;9,0;-100;1,0;0,0;3,0;2,0;column;0,0;False;False;False;1,28199982643;True;1,33400011063
PHS1997w;experiment;2017-05-02-09-58-08;7,0;10,0;-100;1,0;2,0;0,0;3,0;column;1,0;False;True;False;1,11500000954;True;1,35899996758
PHS1997w;experiment;2017-05-02-09-58-08;7,0;11,0;-100;3,0;1,0;2,0;0,0;column;1,0;False;True;False;0,882999897003;True;0,96599984169
PHS1997w;experiment;2017-05-02-09-58-08;7,0;12,0;-100;1,0;3,0;2,0;0,0;row;1,0;True;True;True;1,15000009537;True;1,43099999428
PHS1997w;experiment;2017-05-02-09-58-08;7,0;13,0;-100;3,0;1,0;2,0;0,0;row;1,0;True;True;True;1,18400001526;True;1,3069999218
PHS1997w;experiment;2017-05-02-09-58-08;7,0;14,0;-100;1,0;2,0;0,0;3,0;column;0,0;True;True;True;1,08200001717;True;1,5
PHS1997w;experiment;2017-05-02-09-58-08;7,0;15,0;-100;0,0;2,0;1,0;3,0;column;0,0;True;True;True;0,817000150681;True;1,23600006104
PHS1997w;experiment;2017-05-02-09-58-08;7,0;16,0;-100;2,0;1,0;0,0;3,0;column;0,0;False;True;False;0,983000040054;True;1,13199996948
PHS1997w;experiment;2017-05-02-09-58-08;7,0;17,0;-100;2,0;3,0;1,0;0,0;column;0,0;False;False;False;1,25;True;1,03099989891
PHS1997w;experiment;2017-05-02-09-58-08;7,0;18,0;-100;1,0;2,0;0,0;3,0;column;0,0;False;False;False;1,01600003242;True;0,530999898911
PHS1997w;experiment;2017-05-02-09-58-08;7,0;19,0;-100;0,0;3,0;2,0;1,0;column;1,0;True;False;True;1,21700000763;True;1,125
PHS1997w;experiment;2017-05-02-09-58-08;7,0;20,0;-100;2,0;1,0;0,0;3,0;row;0,0;True;False;True;1,41600012779;True;1,42900013924
PHS1997w;experiment;2017-05-02-09-58-08;7,0;21,0;-100;2,0;3,0;0,0;1,0;row;1,0;True;True;True;1,38199996948;True;0,857000112534
PHS1997w;experiment;2017-05-02-09-58-08;7,0;22,0;-100;3,0;1,0;2,0;0,0;column;0,0;True;True;True;1,01699995995;True;1,33299994469
PHS1997w;experiment;2017-05-02-09-58-08;7,0;23,0;-100;3,0;2,0;0,0;1,0;row;1,0;False;False;False;1,01799988747;True;1,0039999485
PHS1997w;experiment;2017-05-02-09-58-08;7,0;24,0;-100;2,0;3,0;0,0;1,0;column;0,0;True;False;True;1,11599993706;True;0,559000015259
PHS1997w;experiment;2017-05-02-09-58-08;7,0;25,0;-100;3,0;1,0;0,0;2,0;row;1,0;True;True;True;1,34899997711;True;0,832000017166
PHS1997w;experiment;2017-05-02-09-58-08;7,0;26,0;-100;1,0;0,0;2,0;3,0;column;1,0;False;False;False;1,51699995995;True;1,46700000763
PHS1997w;experiment;2017-05-02-09-58-08;7,0;27,0;-100;0,0;3,0;2,0;1,0;row;1,0;True;False;True;1,08299994469;True;1,23199987411
PHS1997w;experiment;2017-05-02-09-58-08;7,0;28,0;-100;1,0;3,0;2,0;0,0;row;0,0;False;True;False;1,04999995232;True;1,23300004005
PHS1997w;experiment;2017-05-02-09-58-08;7,0;29,0;-100;0,0;2,0;3,0;1,0;column;1,0;False;False;False;0,684000015259;True;0,598999977112
PHS1997w;experiment;2017-05-02-09-58-08;7,0;30,0;-100;0,0;1,0;2,0;3,0;row;0,0;False;True;False;0,983000040054;True;1,46600008011
PHS1997w;experiment;2017-05-02-09-58-08;7,0;31,0;-100;0,0;1,0;3,0;2,0;row;0,0;False;False;False;1,15100002289;True;0,695999860764
PHS1997w;experiment;2017-05-02-09-58-08;7,0;32,0;-100;1,0;3,0;2,0;0,0;row;1,0;False;False;False;1,21700000763;True;0,898999929428
PHS1997w;experiment;2017-05-02-09-58-08;7,0;33,0;-100;3,0;2,0;0,0;1,0;column;1,0;True;True;False;0,74799990654;False;0,699000120163
PHS1997w;experiment;2017-05-02-09-58-08;7,0;34,0;-100;1,0;3,0;0,0;2,0;column;1,0;True;True;False;1,21499991417;False;0,700000047684
PHS1997w;experiment;2017-05-02-09-58-08;7,0;35,0;-100;0,0;2,0;1,0;3,0;column;0,0;False;False;False;1,24800014496;True;1,125
PHS1997w;experiment;2017-05-02-09-58-08;7,0;36,0;-100;1,0;0,0;2,0;3,0;row;1,0;True;True;True;0,917999982834;True;1,09800004959
PHS1997w;experiment;2017-05-02-09-58-08;7,0;37,0;-100;0,0;2,0;1,0;3,0;row;0,0;True;False;True;1,28200006485;True;1,19600009918
PHS1997w;experiment;2017-05-02-09-58-08;7,0;38,0;-100;3,0;2,0;1,0;0,0;column;0,0;False;True;False;1,25;True;0,929000139236
PHS1997w;experiment;2017-05-02-09-58-08;7,0;39,0;-100;0,0;2,0;3,0;1,0;column;0,0;True;True;True;1,54999995232;True;0,702000141144
PHS1997w;experiment;2017-05-02-09-58-08;7,0;40,0;-100;0,0;1,0;2,0;3,0;row;1,0;False;True;False;1,28099989891;True;0,967000007629
PHS1997w;experiment;2017-05-02-09-58-08;7,0;41,0;-100;1,0;3,0;2,0;0,0;row;0,0;True;False;True;1,21700000763;True;1,09299993515
PHS1997w;experiment;2017-05-02-09-58-08;7,0;42,0;-100;1,0;3,0;2,0;0,0;column;1,0;False;False;False;2,117000103;True;0,963000059128
PHS1997w;experiment;2017-05-02-09-58-08;7,0;43,0;-100;0,0;1,0;3,0;2,0;column;1,0;True;False;False;1,18299984932;False;1,00499987602
PHS1997w;experiment;2017-05-02-09-58-08;7,0;44,0;-100;3,0;2,0;0,0;1,0;row;0,0;False;True;False;0,882999897003;True;0,99799990654
PHS1997w;experiment;2017-05-02-09-58-08;7,0;45,0;-100;1,0;0,0;3,0;2,0;row;0,0;True;True;True;1,08200001717;True;1,16499996185
PHS1997w;experiment;2017-05-02-09-58-08;7,0;46,0;-100;1,0;2,0;3,0;0,0;row;1,0;True;False;True;1,51399993896;True;1,16299986839
PHS1997w;experiment;2017-05-02-09-58-08;7,0;47,0;-100;2,0;1,0;0,0;3,0;column;0,0;True;False;True;1,31699991226;True;0,664000034332
PHS1997w;experiment;2017-05-02-09-58-08;7,0;48,0;-100;0,0;3,0;1,0;2,0;row;1,0;True;True;True;1,34999990463;True;0,731999874115
PHS1997w;experiment;2017-05-02-09-58-08;8,0;1,0;1000;2,0;0,0;3,0;1,0;row;0,0;True;True;False;1,0;False;0,598999977112
PHS1997w;experiment;2017-05-02-09-58-08;8,0;2,0;1000;3,0;1,0;2,0;0,0;row;1,0;False;False;False;1,06500005722;True;1,42900013924
PHS1997w;experiment;2017-05-02-09-58-08;8,0;3,0;1000;2,0;3,0;0,0;1,0;row;0,0;False;False;False;1,2990000248;True;0,599999904633
PHS1997w;experiment;2017-05-02-09-58-08;8,0;4,0;1000;0,0;3,0;1,0;2,0;column;0,0;True;True;True;1,53299999237;True;0,791000127792
PHS1997w;experiment;2017-05-02-09-58-08;8,0;5,0;1000;0,0;3,0;2,0;1,0;column;0,0;True;True;False;1,73300004005;False;0,924999952316
PHS1997w;experiment;2017-05-02-09-58-08;8,0;6,0;1000;3,0;1,0;0,0;2,0;row;0,0;False;True;False;1,632999897;True;0,700999975204
PHS1997w;experiment;2017-05-02-09-58-08;8,0;7,0;1000;3,0;2,0;1,0;0,0;column;1,0;False;True;False;1,0;True;0,53200006485
PHS1997w;experiment;2017-05-02-09-58-08;8,0;8,0;1000;2,0;3,0;1,0;0,0;row;0,0;True;False;True;1,59899997711;True;0,699999809265
PHS1997w;experiment;2017-05-02-09-58-08;8,0;9,0;1000;0,0;1,0;2,0;3,0;column;1,0;True;False;True;1,29800009727;True;1,16600012779
PHS1997w;experiment;2017-05-02-09-58-08;8,0;10,0;1000;1,0;0,0;2,0;3,0;row;1,0;False;False;False;2,40000009537;True;1,17000007629
PHS1997w;experiment;2017-05-02-09-58-08;8,0;11,0;1000;2,0;1,0;0,0;3,0;column;0,0;True;False;False;3,6970000267;False;1,42599987984
PHS1997w;experiment;2017-05-02-09-58-08;8,0;12,0;1000;2,0;1,0;0,0;3,0;column;0,0;False;True;False;1,69899988174;True;1,29399991035
PHS1997w;experiment;2017-05-02-09-58-08;8,0;13,0;1000;3,0;2,0;1,0;0,0;column;0,0;False;True;False;1,13399982452;True;1,32800006866
PHS1997w;experiment;2017-05-02-09-58-08;8,0;14,0;1000;3,0;0,0;1,0;2,0;row;0,0;True;False;True;1,66600012779;True;0,692999839783
PHS1997w;experiment;2017-05-02-09-58-08;8,0;15,0;1000;0,0;3,0;1,0;2,0;column;0,0;False;False;False;1,69900012016;True;0,963999986649
PHS1997w;experiment;2017-05-02-09-58-08;8,0;16,0;1000;3,0;2,0;1,0;0,0;row;0,0;False;True;False;1,16700005531;True;0,723999977112
PHS1997w;experiment;2017-05-02-09-58-08;8,0;17,0;1000;1,0;0,0;3,0;2,0;row;0,0;False;True;False;1,29999995232;True;1,13300013542
PHS1997w;experiment;2017-05-02-09-58-08;8,0;18,0;1000;3,0;2,0;0,0;1,0;row;1,0;True;True;False;1,76600003242;False;0,730999946594
PHS1997w;experiment;2017-05-02-09-58-08;8,0;19,0;1000;3,0;1,0;0,0;2,0;column;1,0;False;False;False;1,83300018311;True;0,56500005722
PHS1997w;experiment;2017-05-02-09-58-08;8,0;20,0;1000;1,0;2,0;3,0;0,0;column;0,0;True;True;True;2,93499994278;True;1,03299999237
PHS1997w;experiment;2017-05-02-09-58-08;8,0;21,0;1000;0,0;3,0;2,0;1,0;column;0,0;False;False;False;1,60000014305;True;1,00300002098
PHS1997w;experiment;2017-05-02-09-58-08;8,0;22,0;1000;2,0;3,0;0,0;1,0;row;0,0;True;True;True;1,9319999218;True;1,33099985123
PHS1997w;experiment;2017-05-02-09-58-08;8,0;23,0;1000;0,0;2,0;3,0;1,0;column;0,0;False;True;False;1,20199990273;True;1,33399987221
PHS1997w;experiment;2017-05-02-09-58-08;8,0;24,0;1000;1,0;3,0;2,0;0,0;row;1,0;True;False;True;2,32899999619;True;1,22499990463
PHS1997w;experiment;2017-05-02-09-58-08;8,0;25,0;1000;1,0;0,0;2,0;3,0;column;0,0;False;True;False;1,867000103;True;1,33000016212
PHS1997w;experiment;2017-05-02-09-58-08;8,0;26,0;1000;3,0;1,0;2,0;0,0;column;1,0;False;True;True;1,76600003242;False;1,0640001297
PHS1997w;experiment;2017-05-02-09-58-08;8,0;27,0;1000;3,0;2,0;0,0;1,0;column;1,0;False;False;True;3,69900012016;False;0,726999998093
PHS1997w;experiment;2017-05-02-09-58-08;8,0;28,0;1000;1,0;3,0;2,0;0,0;row;0,0;True;True;True;2,36599993706;True;0,904000043869
PHS1997w;experiment;2017-05-02-09-58-08;8,0;29,0;1000;1,0;3,0;2,0;0,0;column;0,0;False;False;False;1,23299980164;True;1,36599993706
PHS1997w;experiment;2017-05-02-09-58-08;8,0;30,0;1000;3,0;1,0;2,0;0,0;row;0,0;False;True;False;1,20000004768;True;1,13199996948
PHS1997w;experiment;2017-05-02-09-58-08;8,0;31,0;1000;3,0;0,0;1,0;2,0;column;0,0;True;True;True;1,76600003242;True;1,02999997139
PHS1997w;experiment;2017-05-02-09-58-08;8,0;32,0;1000;0,0;1,0;2,0;3,0;row;0,0;False;False;False;1,26799988747;True;1,39899992943
PHS1997w;experiment;2017-05-02-09-58-08;8,0;33,0;1000;2,0;0,0;3,0;1,0;row;0,0;False;False;False;1,70000004768;True;1,17100000381
PHS1997w;experiment;2017-05-02-09-58-08;8,0;34,0;1000;3,0;2,0;1,0;0,0;row;1,0;True;True;False;1,73300004005;False;1,15900015831
PHS1997w;experiment;2017-05-02-09-58-08;8,0;35,0;1000;2,0;3,0;1,0;0,0;row;1,0;True;True;True;1,53399991989;True;1,06399989128
PHS1997w;experiment;2017-05-02-09-58-08;8,0;36,0;1000;0,0;1,0;3,0;2,0;row;0,0;True;True;True;1,26699995995;True;0,669999837875
PHS1997w;experiment;2017-05-02-09-58-08;8,0;37,0;1000;1,0;2,0;3,0;0,0;column;1,0;True;False;False;1,20000004768;False;1,43099999428
PHS1997w;experiment;2017-05-02-09-58-08;8,0;38,0;1000;1,0;2,0;3,0;0,0;row;1,0;False;False;False;1,40000009537;True;0,762000083923
PHS1997w;experiment;2017-05-02-09-58-08;8,0;39,0;1000;2,0;3,0;1,0;0,0;column;1,0;True;True;True;1,59999990463;True;1,16499996185
PHS1997w;experiment;2017-05-02-09-58-08;8,0;40,0;1000;3,0;0,0;1,0;2,0;column;1,0;True;False;False;2,26600003242;False;1,46000003815
PHS1997w;experiment;2017-05-02-09-58-08;8,0;41,0;1000;0,0;2,0;3,0;1,0;column;1,0;True;False;True;2,33299994469;True;1,09500002861
PHS1997w;experiment;2017-05-02-09-58-08;8,0;42,0;1000;1,0;0,0;2,0;3,0;row;0,0;False;True;False;1,66700005531;True;0,672000169754
PHS1997w;experiment;2017-05-02-09-58-08;8,0;43,0;1000;3,0;1,0;2,0;0,0;column;1,0;True;True;False;1,60000014305;False;1,06299996376
PHS1997w;experiment;2017-05-02-09-58-08;8,0;44,0;1000;3,0;2,0;0,0;1,0;column;0,0;True;True;True;1,30099987984;True;1,4960000515
PHS1997w;experiment;2017-05-02-09-58-08;8,0;45,0;1000;1,0;2,0;0,0;3,0;row;1,0;False;True;False;2,16599988937;True;1,43200016022
PHS1997w;experiment;2017-05-02-09-58-08;8,0;46,0;1000;1,0;0,0;3,0;2,0;row;1,0;False;False;False;3,03200006485;True;0,763000011444
PHS1997w;experiment;2017-05-02-09-58-08;8,0;47,0;1000;0,0;2,0;1,0;3,0;column;1,0;False;True;False;1,33300018311;True;1,46900010109
PHS1997w;experiment;2017-05-02-09-58-08;8,0;48,0;1000;3,0;0,0;2,0;1,0;row;1,0;False;True;False;0,899999856949;True;1,33800005913
PHS1997w;experiment;2017-05-02-09-58-08;9,0;1,0;100;3,0;0,0;1,0;2,0;column;0,0;False;False;False;1,06699991226;True;1,25899982452
PHS1997w;experiment;2017-05-02-09-58-08;9,0;2,0;100;1,0;2,0;0,0;3,0;column;0,0;True;True;False;1,30099987984;False;1,4350001812
PHS1997w;experiment;2017-05-02-09-58-08;9,0;3,0;100;1,0;2,0;3,0;0,0;row;0,0;True;False;True;1,49899983406;True;0,833999872208
PHS1997w;experiment;2017-05-02-09-58-08;9,0;4,0;100;3,0;2,0;0,0;1,0;column;1,0;True;True;True;2,16499996185;True;1,33299994469
PHS1997w;experiment;2017-05-02-09-58-08;9,0;5,0;100;0,0;1,0;3,0;2,0;column;1,0;True;True;False;1,73300004005;False;1,46399998665
PHS1997w;experiment;2017-05-02-09-58-08;9,0;6,0;100;3,0;0,0;2,0;1,0;column;1,0;True;False;True;1,43200016022;True;1,06100010872
PHS1997w;experiment;2017-05-02-09-58-08;9,0;7,0;100;1,0;0,0;3,0;2,0;column;0,0;False;False;False;1,46700000763;True;0,803000211716
PHS1997w;experiment;2017-05-02-09-58-08;9,0;8,0;100;2,0;1,0;0,0;3,0;column;0,0;False;True;False;1,0;True;0,99799990654
PHS1997w;experiment;2017-05-02-09-58-08;9,0;9,0;100;3,0;1,0;2,0;0,0;column;0,0;True;True;True;1,73300004005;True;1,39899992943
PHS1997w;experiment;2017-05-02-09-58-08;9,0;10,0;100;3,0;1,0;2,0;0,0;column;1,0;False;True;False;1,73500013351;True;1,02300000191
PHS1997w;experiment;2017-05-02-09-58-08;9,0;11,0;100;1,0;0,0;3,0;2,0;column;1,0;True;False;True;1,33200001717;True;1,19599986076
PHS1997w;experiment;2017-05-02-09-58-08;9,0;12,0;100;2,0;3,0;0,0;1,0;row;1,0;False;True;False;1,39899992943;True;1,03399991989
PHS1997w;experiment;2017-05-02-09-58-08;9,0;13,0;100;0,0;2,0;1,0;3,0;row;0,0;False;True;False;1,26699995995;True;1,32800006866
PHS1997w;experiment;2017-05-02-09-58-08;9,0;14,0;100;2,0;3,0;1,0;0,0;row;1,0;True;True;True;1,26600003242;True;1,26699995995
PHS1997w;experiment;2017-05-02-09-58-08;9,0;15,0;100;2,0;1,0;0,0;3,0;column;0,0;True;False;True;1,70000004768;True;1,19899988174
PHS1997w;experiment;2017-05-02-09-58-08;9,0;16,0;100;0,0;3,0;1,0;2,0;column;0,0;True;True;True;1,36699986458;True;0,863000154495
PHS1997w;experiment;2017-05-02-09-58-08;9,0;17,0;100;0,0;2,0;1,0;3,0;column;1,0;True;True;True;1,43299984932;True;1,19899988174
PHS1997w;experiment;2017-05-02-09-58-08;9,0;18,0;100;2,0;1,0;0,0;3,0;row;1,0;True;False;True;1,60100007057;True;0,795000076294
PHS1997w;experiment;2017-05-02-09-58-08;9,0;19,0;100;2,0;1,0;3,0;0,0;column;0,0;True;True;True;1,09900021553;True;1,16799998283
PHS1997w;experiment;2017-05-02-09-58-08;9,0;20,0;100;3,0;2,0;1,0;0,0;row;0,0;False;True;False;0,900000095367;True;0,963000059128
PHS1997w;experiment;2017-05-02-09-58-08;9,0;21,0;100;3,0;2,0;1,0;0,0;column;1,0;False;True;False;1,53099989891;True;1,3639998436
PHS1997w;experiment;2017-05-02-09-58-08;9,0;22,0;100;0,0;2,0;1,0;3,0;row;0,0;True;False;True;1,2650001049;True;1,43400001526
PHS1997w;experiment;2017-05-02-09-58-08;9,0;23,0;100;2,0;3,0;0,0;1,0;row;0,0;False;False;False;1,09899997711;True;0,597999811172
PHS1997w;experiment;2017-05-02-09-58-08;9,0;24,0;100;1,0;0,0;2,0;3,0;column;1,0;False;False;False;1,33200001717;True;0,52999997139
PHS1997w;experiment;2017-05-02-09-58-08;9,0;25,0;100;0,0;3,0;2,0;1,0;column;0,0;True;True;True;1,20000004768;True;0,634000062943
PHS1997w;experiment;2017-05-02-09-58-08;9,0;26,0;100;1,0;0,0;3,0;2,0;row;1,0;False;False;False;0,866000175476;True;1,33700013161
PHS1997w;experiment;2017-05-02-09-58-08;9,0;27,0;100;3,0;0,0;2,0;1,0;column;0,0;False;False;True;1,26600003242;False;1,39899992943
PHS1997w;experiment;2017-05-02-09-58-08;9,0;28,0;100;0,0;3,0;2,0;1,0;row;1,0;True;True;True;1,26600003242;True;1,49799990654
PHS1997w;experiment;2017-05-02-09-58-08;9,0;29,0;100;3,0;0,0;1,0;2,0;row;0,0;False;False;False;1,23300004005;True;1,09900021553
PHS1997w;experiment;2017-05-02-09-58-08;9,0;30,0;100;3,0;0,0;2,0;1,0;column;1,0;False;True;False;0,967000007629;True;0,757999897003
PHS1997w;experiment;2017-05-02-09-58-08;9,0;31,0;100;0,0;1,0;2,0;3,0;row;0,0;True;True;True;1,30000019073;True;1,39800000191
PHS1997w;experiment;2017-05-02-09-58-08;9,0;32,0;100;1,0;3,0;0,0;2,0;column;0,0;True;True;True;1,09999990463;True;1,39900016785
PHS1997w;experiment;2017-05-02-09-58-08;9,0;33,0;100;2,0;3,0;1,0;0,0;column;1,0;False;True;False;0,899999856949;True;1,46499991417
PHS1997w;experiment;2017-05-02-09-58-08;9,0;34,0;100;0,0;3,0;2,0;1,0;column;0,0;False;False;False;1,16700005531;True;0,796999931335
PHS1997w;experiment;2017-05-02-09-58-08;9,0;35,0;100;2,0;0,0;1,0;3,0;row;0,0;True;True;False;0,832999944687;False;1,09599995613
PHS1997w;experiment;2017-05-02-09-58-08;9,0;36,0;100;3,0;1,0;2,0;0,0;row;1,0;True;False;False;1,16699981689;False;0,868000030518
PHS1997w;experiment;2017-05-02-09-58-08;9,0;37,0;100;1,0;2,0;0,0;3,0;row;0,0;False;True;False;1,40000009537;True;1,43099999428
PHS1997w;experiment;2017-05-02-09-58-08;9,0;38,0;100;0,0;1,0;2,0;3,0;column;1,0;True;False;False;1,06699991226;False;0,62299990654
PHS1997w;experiment;2017-05-02-09-58-08;9,0;39,0;100;0,0;2,0;1,0;3,0;row;1,0;True;True;False;2,13100004196;False;1,37000012398
PHS1997w;experiment;2017-05-02-09-58-08;9,0;40,0;100;3,0;2,0;1,0;0,0;column;1,0;True;False;True;1,16700005531;True;1,02999997139
PHS1997w;experiment;2017-05-02-09-58-08;9,0;41,0;100;2,0;1,0;3,0;0,0;row;1,0;False;False;False;1,33300018311;True;1,26599979401
PHS1997w;experiment;2017-05-02-09-58-08;9,0;42,0;100;0,0;3,0;2,0;1,0;row;0,0;True;False;False;1,4319999218;False;1,09599995613
PHS1997w;experiment;2017-05-02-09-58-08;9,0;43,0;100;2,0;0,0;3,0;1,0;column;1,0;False;False;False;1,53299999237;True;0,964999914169
PHS1997w;experiment;2017-05-02-09-58-08;9,0;44,0;100;3,0;2,0;1,0;0,0;row;1,0;False;False;False;1,5;True;1,06500005722
PHS1997w;experiment;2017-05-02-09-58-08;9,0;45,0;100;2,0;0,0;1,0;3,0;row;1,0;False;True;False;1,39999985695;True;0,866000175476
PHS1997w;experiment;2017-05-02-09-58-08;9,0;46,0;100;0,0;3,0;2,0;1,0;row;1,0;False;False;False;1,2009999752;True;1,4279999733
PHS1997w;experiment;2017-05-02-09-58-08;9,0;47,0;100;0,0;1,0;3,0;2,0;column;0,0;True;False;True;1,23399996758;True;0,629999876022
PHS1997w;experiment;2017-05-02-09-58-08;9,0;48,0;100;2,0;1,0;0,0;3,0;column;1,0;True;False;True;0,967000007629;True;0,633000135422
PHS1997w;experiment;2017-05-02-09-58-08;10,0;1,0;-100;2,0;0,0;1,0;3,0;column;1,0;True;False;True;1,21600008011;True;0,700000047684
PHS1997w;experiment;2017-05-02-09-58-08;10,0;2,0;-100;2,0;0,0;1,0;3,0;row;1,0;True;True;True;1,08400011063;True;0,857000112534
PHS1997w;experiment;2017-05-02-09-58-08;10,0;3,0;-100;0,0;2,0;1,0;3,0;column;1,0;False;True;True;1,31500005722;False;1,29999995232
PHS1997w;experiment;2017-05-02-09-58-08;10,0;4,0;-100;1,0;3,0;0,0;2,0;column;1,0;False;True;False;1,18300008774;True;0,928999900818
PHS1997w;experiment;2017-05-02-09-58-08;10,0;5,0;-100;1,0;0,0;2,0;3,0;column;0,0;True;False;True;1,24900007248;True;1,09299993515
PHS1997w;experiment;2017-05-02-09-58-08;10,0;6,0;-100;2,0;1,0;3,0;0,0;column;0,0;False;True;False;0,749000072479;True;0,964999914169
PHS1997w;experiment;2017-05-02-09-58-08;10,0;7,0;-100;0,0;1,0;3,0;2,0;column;0,0;False;False;False;0,848000049591;True;1,00300002098
PHS1997w;experiment;2017-05-02-09-58-08;10,0;8,0;-100;2,0;1,0;0,0;3,0;column;1,0;False;False;False;1,01600003242;True;1,03299999237
PHS1997w;experiment;2017-05-02-09-58-08;10,0;9,0;-100;0,0;2,0;3,0;1,0;row;1,0;False;True;False;0,881000041962;True;0,958999872208
PHS1997w;experiment;2017-05-02-09-58-08;10,0;10,0;-100;3,0;0,0;2,0;1,0;column;0,0;True;False;True;1,01699995995;True;1,34599995613
PHS1997w;experiment;2017-05-02-09-58-08;10,0;11,0;-100;0,0;2,0;1,0;3,0;column;1,0;True;True;True;1,44900012016;True;0,96599984169
PHS1997w;experiment;2017-05-02-09-58-08;10,0;12,0;-100;3,0;1,0;2,0;0,0;column;0,0;False;False;False;1,28200006485;True;0,964999914169
PHS1997w;experiment;2017-05-02-09-58-08;10,0;13,0;-100;1,0;0,0;3,0;2,0;row;0,0;False;True;False;1,0490000248;True;1,49699997902
PHS1997w;experiment;2017-05-02-09-58-08;10,0;14,0;-100;3,0;2,0;0,0;1,0;column;0,0;False;False;False;1,41600012779;True;0,532999992371
PHS1997w;experiment;2017-05-02-09-58-08;10,0;15,0;-100;0,0;1,0;2,0;3,0;column;0,0;True;False;True;1,15100002289;True;0,900000095367
PHS1997w;experiment;2017-05-02-09-58-08;10,0;16,0;-100;1,0;2,0;3,0;0,0;column;1,0;True;False;True;1,03299999237;True;0,630000114441
PHS1997w;experiment;2017-05-02-09-58-08;10,0;17,0;-100;0,0;1,0;3,0;2,0;row;1,0;True;False;True;1,15000009537;True;1,46600008011
PHS1997w;experiment;2017-05-02-09-58-08;10,0;18,0;-100;2,0;1,0;3,0;0,0;row;1,0;False;False;False;0,884000062943;True;1,06599998474
PHS1997w;experiment;2017-05-02-09-58-08;10,0;19,0;-100;3,0;0,0;1,0;2,0;column;1,0;True;True;True;1,25;True;0,830000162125
PHS1997w;experiment;2017-05-02-09-58-08;10,0;20,0;-100;3,0;2,0;1,0;0,0;row;0,0;False;True;False;1,08400011063;True;1,37400007248
PHS1997w;experiment;2017-05-02-09-58-08;10,0;21,0;-100;0,0;2,0;1,0;3,0;row;1,0;True;True;True;2,14800000191;True;0,792000055313
PHS1997w;experiment;2017-05-02-09-58-08;10,0;22,0;-100;1,0;2,0;3,0;0,0;column;0,0;True;True;True;1,34899997711;True;1,13100004196
PHS1997w;experiment;2017-05-02-09-58-08;10,0;23,0;-100;2,0;1,0;0,0;3,0;row;1,0;False;False;False;1,08299994469;True;0,56299996376
PHS1997w;experiment;2017-05-02-09-58-08;10,0;24,0;-100;0,0;3,0;2,0;1,0;row;0,0;True;True;True;1,11600017548;True;0,868000030518
PHS1997w;experiment;2017-05-02-09-58-08;10,0;25,0;-100;3,0;1,0;0,0;2,0;column;0,0;False;True;False;0,980000019073;True;1,39600014687
PHS1997w;experiment;2017-05-02-09-58-08;10,0;26,0;-100;0,0;3,0;1,0;2,0;column;0,0;False;False;False;0,866999864578;True;1,36099982262
PHS1997w;experiment;2017-05-02-09-58-08;10,0;27,0;-100;2,0;0,0;3,0;1,0;row;0,0;False;True;False;1,14800000191;True;1,29199981689
PHS1997w;experiment;2017-05-02-09-58-08;10,0;28,0;-100;1,0;0,0;3,0;2,0;row;1,0;False;True;False;1,01399993896;True;0,901000022888
PHS1997w;experiment;2017-05-02-09-58-08;10,0;29,0;-100;3,0;2,0;1,0;0,0;row;1,0;True;True;True;0,849999904633;True;1,39699983597
PHS1997w;experiment;2017-05-02-09-58-08;10,0;30,0;-100;1,0;3,0;0,0;2,0;column;0,0;True;True;True;1,01499986649;True;0,932000160217
PHS1997w;experiment;2017-05-02-09-58-08;10,0;31,0;-100;3,0;2,0;1,0;0,0;row;0,0;True;True;True;1,65100002289;True;1,16500020027
PHS1997w;experiment;2017-05-02-09-58-08;10,0;32,0;-100;3,0;0,0;1,0;2,0;row;0,0;False;True;False;1,01699995995;True;1,16599988937
PHS1997w;experiment;2017-05-02-09-58-08;10,0;33,0;-100;0,0;1,0;3,0;2,0;column;0,0;True;True;True;1,08299994469;True;1,39800000191
PHS1997w;experiment;2017-05-02-09-58-08;10,0;34,0;-100;1,0;3,0;0,0;2,0;column;0,0;False;False;False;1,21599984169;True;1,39700007439
PHS1997w;experiment;2017-05-02-09-58-08;10,0;35,0;-100;0,0;2,0;3,0;1,0;row;1,0;True;False;True;1,41600012779;True;1,26399993896
PHS1997w;experiment;2017-05-02-09-58-08;10,0;36,0;-100;2,0;3,0;0,0;1,0;row;1,0;False;True;False;0,815999984741;True;1,36599993706
PHS1997w;experiment;2017-05-02-09-58-08;10,0;37,0;-100;1,0;2,0;3,0;0,0;row;0,0;False;False;False;1,01700019836;True;0,557000160217
PHS1997w;experiment;2017-05-02-09-58-08;10,0;38,0;-100;1,0;0,0;2,0;3,0;column;0,0;False;True;False;0,883999824524;True;1,06599998474
PHS1997w;experiment;2017-05-02-09-58-08;10,0;39,0;-100;0,0;3,0;1,0;2,0;row;0,0;False;True;False;0,884000062943;True;0,865000009537
PHS1997w;experiment;2017-05-02-09-58-08;10,0;40,0;-100;0,0;3,0;1,0;2,0;column;0,0;True;False;True;1,28200006485;True;0,868999958038
PHS1997w;experiment;2017-05-02-09-58-08;10,0;41,0;-100;0,0;1,0;3,0;2,0;column;1,0;False;False;False;0,948999881744;True;1,33100008965
PHS1997w;experiment;2017-05-02-09-58-08;10,0;42,0;-100;3,0;2,0;1,0;0,0;column;1,0;False;True;False;1,81299996376;True;1,40300011635
PHS1997w;experiment;2017-05-02-09-58-08;10,0;43,0;-100;2,0;0,0;3,0;1,0;row;1,0;False;False;False;1,04799985886;True;0,807000160217
PHS1997w;experiment;2017-05-02-09-58-08;10,0;44,0;-100;3,0;2,0;1,0;0,0;column;1,0;True;True;True;1,24899983406;True;0,896000146866
PHS1997w;experiment;2017-05-02-09-58-08;10,0;45,0;-100;3,0;1,0;0,0;2,0;column;0,0;True;False;True;1,35000014305;True;0,5640001297
PHS1997w;experiment;2017-05-02-09-58-08;10,0;46,0;-100;2,0;0,0;3,0;1,0;row;0,0;True;False;True;1,08300018311;True;0,732000112534
PHS1997w;experiment;2017-05-02-09-58-08;10,0;47,0;-100;0,0;3,0;1,0;2,0;column;1,0;False;True;False;1,34999990463;True;0,630000114441
PHS1997w;experiment;2017-05-02-09-58-08;10,0;48,0;-100;3,0;0,0;1,0;2,0;column;1,0;False;False;False;1,05000019073;True;0,959000110626
PHS1997w;experiment;2017-05-02-09-58-08;11,0;1,0;100;3,0;0,0;2,0;1,0;column;0,0;True;True;True;1,56599998474;True;1,03600001335
PHS1997w;experiment;2017-05-02-09-58-08;11,0;2,0;100;0,0;1,0;3,0;2,0;row;1,0;False;True;False;0,967000007629;True;1,42899990082
PHS1997w;experiment;2017-05-02-09-58-08;11,0;3,0;100;3,0;1,0;0,0;2,0;column;1,0;False;False;False;0,933000087738;True;1,16199994087
PHS1997w;experiment;2017-05-02-09-58-08;11,0;4,0;100;2,0;3,0;1,0;0,0;row;1,0;False;False;False;1,0;True;0,693000078201
PHS1997w;experiment;2017-05-02-09-58-08;11,0;5,0;100;2,0;0,0;3,0;1,0;column;1,0;True;False;True;1,09899997711;True;1,29100012779
PHS1997w;experiment;2017-05-02-09-58-08;11,0;6,0;100;2,0;1,0;0,0;3,0;row;0,0;False;True;False;1,53299999237;True;0,598999977112
PHS1997w;experiment;2017-05-02-09-58-08;11,0;7,0;100;2,0;3,0;0,0;1,0;column;0,0;True;False;True;1,36699986458;True;1,40300011635
PHS1997w;experiment;2017-05-02-09-58-08;11,0;8,0;100;0,0;1,0;3,0;2,0;row;0,0;True;True;False;0,833999872208;False;0,732999801636
PHS1997w;experiment;2017-05-02-09-58-08;11,0;9,0;100;2,0;1,0;3,0;0,0;column;1,0;False;True;False;0,865999937057;True;0,898000001907
PHS1997w;experiment;2017-05-02-09-58-08;11,0;10,0;100;2,0;3,0;1,0;0,0;row;0,0;False;True;False;1,19900012016;True;0,664000034332
PHS1997w;experiment;2017-05-02-09-58-08;11,0;11,0;100;3,0;2,0;0,0;1,0;column;0,0;True;False;True;1,66599988937;True;0,825000047684
PHS1997w;experiment;2017-05-02-09-58-08;11,0;12,0;100;0,0;1,0;2,0;3,0;column;0,0;False;False;False;1,33400011063;True;1,49900007248
PHS1997w;experiment;2017-05-02-09-58-08;11,0;13,0;100;0,0;2,0;3,0;1,0;row;1,0;True;False;True;1,69999980927;True;0,669000148773
PHS1997w;experiment;2017-05-02-09-58-08;11,0;14,0;100;1,0;0,0;2,0;3,0;row;0,0;True;False;True;1,06700015068;True;0,863999843597
PHS1997w;experiment;2017-05-02-09-58-08;11,0;15,0;100;1,0;2,0;0,0;3,0;row;1,0;False;False;False;1,5;True;0,707000017166
PHS1997w;experiment;2017-05-02-09-58-08;11,0;16,0;100;0,0;3,0;1,0;2,0;column;0,0;False;True;False;1,23200011253;True;0,65900015831
PHS1997w;experiment;2017-05-02-09-58-08;11,0;17,0;100;2,0;1,0;0,0;3,0;column;1,0;False;False;False;1,19999980927;True;1,132999897
PHS1997w;experiment;2017-05-02-09-58-08;11,0;18,0;100;1,0;3,0;0,0;2,0;column;1,0;False;True;False;1,0;True;1,33200001717
PHS1997w;experiment;2017-05-02-09-58-08;11,0;19,0;100;3,0;2,0;0,0;1,0;row;0,0;True;False;True;1,03200006485;True;0,898000001907
PHS1997w;experiment;2017-05-02-09-58-08;11,0;20,0;100;0,0;2,0;3,0;1,0;row;1,0;False;True;False;0,867000102997;True;1,4279999733
PHS1997w;experiment;2017-05-02-09-58-08;11,0;21,0;100;2,0;0,0;3,0;1,0;column;0,0;True;True;True;1,66700005531;True;1,02999997139
PHS1997w;experiment;2017-05-02-09-58-08;11,0;22,0;100;0,0;3,0;2,0;1,0;column;1,0;True;True;True;1,20000004768;True;1,26600003242
PHS1997w;experiment;2017-05-02-09-58-08;11,0;23,0;100;3,0;2,0;1,0;0,0;column;0,0;True;False;True;2,16599988937;True;0,542999982834
PHS1997w;experiment;2017-05-02-09-58-08;11,0;24,0;100;3,0;1,0;0,0;2,0;row;1,0;False;False;False;0,96799993515;True;1,25900006294
PHS1997w;experiment;2017-05-02-09-58-08;11,0;25,0;100;1,0;3,0;2,0;0,0;row;0,0;False;False;False;1,02999997139;True;0,962000131607
PHS1997w;experiment;2017-05-02-09-58-08;11,0;26,0;100;1,0;0,0;3,0;2,0;row;1,0;True;False;True;1,43300008774;True;0,53400015831
PHS1997w;experiment;2017-05-02-09-58-08;11,0;27,0;100;1,0;3,0;2,0;0,0;row;0,0;True;False;True;1,49900007248;True;0,963999986649
PHS1997w;experiment;2017-05-02-09-58-08;11,0;28,0;100;0,0;1,0;3,0;2,0;column;1,0;False;True;False;1,36500000954;True;0,598000049591
PHS1997w;experiment;2017-05-02-09-58-08;11,0;29,0;100;2,0;1,0;0,0;3,0;row;0,0;True;True;True;1,03399991989;True;1,26600003242
PHS1997w;experiment;2017-05-02-09-58-08;11,0;30,0;100;0,0;3,0;1,0;2,0;row;1,0;True;False;True;1,2650001049;True;1,39800000191
PHS1997w;experiment;2017-05-02-09-58-08;11,0;31,0;100;3,0;0,0;2,0;1,0;row;1,0;False;False;False;0,998999834061;True;1,36199998856
PHS1997w;experiment;2017-05-02-09-58-08;11,0;32,0;100;2,0;0,0;1,0;3,0;row;1,0;True;True;True;1,0;True;0,967000007629
PHS1997w;experiment;2017-05-02-09-58-08;11,0;33,0;100;1,0;3,0;0,0;2,0;row;0,0;False;False;False;1,23299980164;True;1,49099993706
PHS1997w;experiment;2017-05-02-09-58-08;11,0;34,0;100;1,0;3,0;0,0;2,0;row;1,0;False;False;False;0,934000015259;True;0,995000123978
PHS1997w;experiment;2017-05-02-09-58-08;11,0;35,0;100;2,0;3,0;1,0;0,0;column;0,0;True;False;True;1,26600003242;True;1,33100008965
PHS1997w;experiment;2017-05-02-09-58-08;11,0;36,0;100;1,0;3,0;0,0;2,0;column;0,0;False;True;False;0,832000017166;True;0,730999946594
PHS1997w;experiment;2017-05-02-09-58-08;11,0;37,0;100;2,0;1,0;3,0;0,0;row;0,0;False;False;False;1,19900012016;True;0,626999855042
PHS1997w;experiment;2017-05-02-09-58-08;11,0;38,0;100;0,0;1,0;3,0;2,0;column;0,0;False;False;False;1,36500000954;True;0,660000085831
PHS1997w;experiment;2017-05-02-09-58-08;11,0;39,0;100;1,0;2,0;3,0;0,0;column;1,0;False;True;False;1,23300004005;True;1,2009999752
PHS1997w;experiment;2017-05-02-09-58-08;11,0;40,0;100;3,0;2,0;1,0;0,0;column;0,0;False;False;False;0,733000040054;True;1,46799993515
PHS1997w;experiment;2017-05-02-09-58-08;11,0;41,0;100;3,0;1,0;0,0;2,0;row;0,0;False;False;False;1,13499999046;True;1,29999995232
PHS1997w;experiment;2017-05-02-09-58-08;11,0;42,0;100;2,0;0,0;1,0;3,0;column;0,0;False;True;False;0,934000015259;True;1,09699988365
PHS1997w;experiment;2017-05-02-09-58-08;11,0;43,0;100;1,0;3,0;0,0;2,0;row;1,0;True;True;False;0,967000007629;False;0,861999988556
PHS1997w;experiment;2017-05-02-09-58-08;11,0;44,0;100;3,0;1,0;0,0;2,0;row;0,0;True;True;True;1,20199990273;True;0,601000070572
PHS1997w;experiment;2017-05-02-09-58-08;11,0;45,0;100;0,0;2,0;3,0;1,0;row;0,0;False;False;False;1,96700000763;True;0,931999921799
PHS1997w;experiment;2017-05-02-09-58-08;11,0;46,0;100;0,0;2,0;1,0;3,0;column;1,0;False;False;False;2,03299999237;True;1,33299994469
PHS1997w;experiment;2017-05-02-09-58-08;11,0;47,0;100;1,0;3,0;0,0;2,0;column;1,0;True;False;True;2,03200006485;True;0,970999956131
PHS1997w;experiment;2017-05-02-09-58-08;11,0;48,0;100;2,0;0,0;3,0;1,0;row;0,0;True;True;False;0,866999864578;False;0,830000162125
PHS1997w;experiment;2017-05-02-09-58-08;12,0;1,0;1000;1,0;3,0;0,0;2,0;column;0,0;True;False;True;1,06699991226;True;1,41000008583
PHS1997w;experiment;2017-05-02-09-58-08;12,0;2,0;1000;1,0;0,0;2,0;3,0;column;0,0;True;True;True;0,832999944687;True;1,09899997711
PHS1997w;experiment;2017-05-02-09-58-08;12,0;3,0;1000;2,0;3,0;0,0;1,0;row;1,0;True;True;True;1,26700019836;True;1,26499986649
PHS1997w;experiment;2017-05-02-09-58-08;12,0;4,0;1000;0,0;1,0;3,0;2,0;column;1,0;True;False;True;2,06599998474;True;1,22300004959
PHS1997w;experiment;2017-05-02-09-58-08;12,0;5,0;1000;0,0;2,0;1,0;3,0;column;0,0;False;False;False;1,5;True;1,39899992943
PHS1997w;experiment;2017-05-02-09-58-08;12,0;6,0;1000;1,0;2,0;3,0;0,0;row;0,0;True;True;False;1,867000103;False;1,39700007439
PHS1997w;experiment;2017-05-02-09-58-08;12,0;7,0;1000;2,0;3,0;1,0;0,0;row;0,0;False;False;False;1,132999897;True;1,37099981308
PHS1997w;experiment;2017-05-02-09-58-08;12,0;8,0;1000;1,0;2,0;0,0;3,0;column;1,0;False;True;False;1,93399977684;True;0,929000139236
PHS1997w;experiment;2017-05-02-09-58-08;12,0;9,0;1000;3,0;2,0;0,0;1,0;row;0,0;False;False;False;1,56700015068;True;1,50100016594
PHS1997w;experiment;2017-05-02-09-58-08;12,0;10,0;1000;0,0;1,0;2,0;3,0;row;1,0;False;False;False;1,06599998474;True;0,866999864578
PHS1997w;experiment;2017-05-02-09-58-08;12,0;11,0;1000;0,0;1,0;3,0;2,0;row;1,0;True;False;False;1,06699991226;False;1,09800004959
PHS1997w;experiment;2017-05-02-09-58-08;12,0;12,0;1000;2,0;0,0;1,0;3,0;row;1,0;True;False;True;2,7990000248;True;0,931999921799
PHS1997w;experiment;2017-05-02-09-58-08;12,0;13,0;1000;0,0;3,0;2,0;1,0;column;1,0;True;True;True;1,63300013542;True;1,1970000267
PHS1997w;experiment;2017-05-02-09-58-08;12,0;14,0;1000;2,0;3,0;0,0;1,0;column;1,0;False;True;False;1,53299999237;True;1,46600008011
PHS1997w;experiment;2017-05-02-09-58-08;12,0;15,0;1000;3,0;0,0;2,0;1,0;row;0,0;True;False;False;1,39999985695;False;0,630000114441
PHS1997w;experiment;2017-05-02-09-58-08;12,0;16,0;1000;2,0;3,0;0,0;1,0;column;0,0;False;True;False;1,09899997711;True;1,2650001049
PHS1997w;experiment;2017-05-02-09-58-08;12,0;17,0;1000;3,0;1,0;0,0;2,0;column;0,0;False;True;False;1,10100007057;True;1,40299987793
PHS1997w;experiment;2017-05-02-09-58-08;12,0;18,0;1000;2,0;1,0;3,0;0,0;column;0,0;True;True;False;1,132999897;False;1,23699998856
PHS1997w;experiment;2017-05-02-09-58-08;12,0;19,0;1000;3,0;0,0;1,0;2,0;column;1,0;False;True;True;2,5;False;0,664999961853
PHS1997w;experiment;2017-05-02-09-58-08;12,0;20,0;1000;2,0;0,0;3,0;1,0;column;1,0;False;True;False;0,966000080109;True;1,15999984741
PHS1997w;experiment;2017-05-02-09-58-08;12,0;21,0;1000;1,0;0,0;3,0;2,0;column;1,0;False;True;False;1,53199982643;True;0,570000171661
PHS1997w;experiment;2017-05-02-09-58-08;12,0;22,0;1000;0,0;2,0;1,0;3,0;row;1,0;True;False;True;2,19999980927;True;0,993999958038
PHS1997w;experiment;2017-05-02-09-58-08;12,0;23,0;1000;1,0;2,0;3,0;0,0;row;1,0;True;True;False;1,46399998665;False;1,16199994087
PHS1997w;experiment;2017-05-02-09-58-08;12,0;24,0;1000;2,0;0,0;1,0;3,0;column;1,0;True;True;True;2,86599993706;True;0,930000066757
PHS1997w;experiment;2017-05-02-09-58-08;12,0;25,0;1000;2,0;3,0;1,0;0,0;column;0,0;True;False;True;1,96500015259;True;1,23600006104
PHS1997w;experiment;2017-05-02-09-58-08;12,0;26,0;1000;0,0;3,0;1,0;2,0;row;1,0;False;False;False;1,43300008774;True;1,25999999046
PHS1997w;experiment;2017-05-02-09-58-08;12,0;27,0;1000;0,0;2,0;3,0;1,0;row;1,0;True;False;True;1,56700015068;True;0,930999994278
PHS1997w;experiment;2017-05-02-09-58-08;12,0;28,0;1000;1,0;0,0;3,0;2,0;row;0,0;True;True;False;2,0;False;0,695000171661
PHS1997w;experiment;2017-05-02-09-58-08;12,0;29,0;1000;2,0;1,0;3,0;0,0;column;1,0;False;False;False;1,93499994278;True;0,56299996376
PHS1997w;experiment;2017-05-02-09-58-08;12,0;30,0;1000;3,0;2,0;0,0;1,0;row;1,0;False;True;False;1,13300013542;True;1,03200006485
PHS1997w;experiment;2017-05-02-09-58-08;12,0;31,0;1000;1,0;3,0;2,0;0,0;column;1,0;True;False;True;1,60000014305;True;0,566999912262
PHS1997w;experiment;2017-05-02-09-58-08;12,0;32,0;1000;3,0;1,0;0,0;2,0;row;1,0;False;False;False;1,66700005531;True;0,828999996185
PHS1997w;experiment;2017-05-02-09-58-08;12,0;33,0;1000;2,0;0,0;1,0;3,0;column;1,0;False;False;False;1,5;True;1,20199990273
PHS1997w;experiment;2017-05-02-09-58-08;12,0;34,0;1000;0,0;1,0;2,0;3,0;row;0,0;True;True;True;1,53200006485;True;1,16300010681
PHS1997w;experiment;2017-05-02-09-58-08;12,0;35,0;1000;2,0;0,0;3,0;1,0;row;1,0;True;False;True;2,0;True;1,26300001144
PHS1997w;experiment;2017-05-02-09-58-08;12,0;36,0;1000;3,0;1,0;0,0;2,0;column;0,0;True;False;True;1,367000103;True;1,46600008011
PHS1997w;experiment;2017-05-02-09-58-08;12,0;37,0;1000;1,0;3,0;0,0;2,0;row;1,0;True;False;False;1,91799998283;False;1,46799993515
PHS1997w;experiment;2017-05-02-09-58-08;12,0;38,0;1000;2,0;1,0;3,0;0,0;column;0,0;False;False;False;1,42999982834;True;0,694000005722
PHS1997w;experiment;2017-05-02-09-58-08;12,0;39,0;1000;1,0;3,0;0,0;2,0;row;0,0;False;True;False;1,09999990463;True;1,16700005531
PHS1997w;experiment;2017-05-02-09-58-08;12,0;40,0;1000;1,0;0,0;3,0;2,0;column;0,0;True;False;False;1,0;False;0,760999917984
PHS1997w;experiment;2017-05-02-09-58-08;12,0;41,0;1000;1,0;3,0;0,0;2,0;column;0,0;False;True;False;0,932999849319;True;0,922999858856
PHS1997w;experiment;2017-05-02-09-58-08;12,0;42,0;1000;0,0;1,0;2,0;3,0;column;1,0;False;False;False;0,766999959946;True;1,48900008202
PHS1997w;experiment;2017-05-02-09-58-08;12,0;43,0;1000;3,0;1,0;0,0;2,0;row;1,0;True;True;False;2,29999995232;False;1,26799988747
PHS1997w;experiment;2017-05-02-09-58-08;12,0;44,0;1000;2,0;1,0;0,0;3,0;row;0,0;False;True;False;1,10000014305;True;0,865999937057
PHS1997w;experiment;2017-05-02-09-58-08;12,0;45,0;1000;3,0;2,0;0,0;1,0;column;0,0;False;False;False;2,16499996185;True;1,46700000763
PHS1997w;experiment;2017-05-02-09-58-08;12,0;46,0;1000;1,0;2,0;0,0;3,0;row;0,0;True;False;True;3,19899988174;True;1,40199995041
PHS1997w;experiment;2017-05-02-09-58-08;12,0;47,0;1000;0,0;2,0;3,0;1,0;column;0,0;True;True;True;1,79999995232;True;0,930999994278
PHS1997w;experiment;2017-05-02-09-58-08;12,0;48,0;1000;0,0;1,0;2,0;3,0;column;0,0;False;False;False;1,367000103;True;0,963999986649
PHS1997w;experiment;2017-05-02-09-58-08;13,0;1,0;1000;0,0;3,0;1,0;2,0;column;1,0;True;False;True;1,73199987411;True;0,701999902725
PHS1997w;experiment;2017-05-02-09-58-08;13,0;2,0;1000;0,0;3,0;1,0;2,0;column;1,0;True;False;True;1,29999995232;True;1,52699995041
PHS1997w;experiment;2017-05-02-09-58-08;13,0;3,0;1000;2,0;3,0;0,0;1,0;column;0,0;True;False;False;1,03299999237;False;0,764000177383
PHS1997w;experiment;2017-05-02-09-58-08;13,0;4,0;1000;3,0;0,0;2,0;1,0;column;0,0;True;True;True;1,40000009537;True;1,2380001545
PHS1997w;experiment;2017-05-02-09-58-08;13,0;5,0;1000;3,0;0,0;1,0;2,0;row;1,0;True;False;False;1,19900012016;False;0,52999997139
PHS1997w;experiment;2017-05-02-09-58-08;13,0;6,0;1000;1,0;2,0;3,0;0,0;row;0,0;False;False;False;1,53399991989;True;0,904000043869
PHS1997w;experiment;2017-05-02-09-58-08;13,0;7,0;1000;0,0;2,0;1,0;3,0;row;0,0;True;False;True;1,39999985695;True;0,662999868393
PHS1997w;experiment;2017-05-02-09-58-08;13,0;8,0;1000;1,0;0,0;2,0;3,0;row;1,0;True;True;True;1,76600003242;True;1,46799993515
PHS1997w;experiment;2017-05-02-09-58-08;13,0;9,0;1000;2,0;1,0;0,0;3,0;column;1,0;False;True;True;1,33299994469;False;1,02999997139
PHS1997w;experiment;2017-05-02-09-58-08;13,0;10,0;1000;0,0;1,0;3,0;2,0;column;0,0;True;True;False;2,26600003242;False;1,16700005531
PHS1997w;experiment;2017-05-02-09-58-08;13,0;11,0;1000;2,0;1,0;3,0;0,0;row;0,0;True;True;True;2,7990000248;True;1,16299986839
PHS1997w;experiment;2017-05-02-09-58-08;13,0;12,0;1000;1,0;2,0;3,0;0,0;column;1,0;False;False;False;2,29999995232;True;0,763999938965
PHS1997w;experiment;2017-05-02-09-58-08;13,0;13,0;1000;3,0;0,0;1,0;2,0;row;0,0;False;True;False;1,56700015068;True;1,49700021744
PHS1997w;experiment;2017-05-02-09-58-08;13,0;14,0;1000;2,0;1,0;3,0;0,0;row;1,0;True;False;True;2,06699991226;True;0,664000034332
PHS1997w;experiment;2017-05-02-09-58-08;13,0;15,0;1000;0,0;2,0;3,0;1,0;row;1,0;False;True;False;1,39900016785;True;1,367000103
PHS1997w;experiment;2017-05-02-09-58-08;13,0;16,0;1000;2,0;0,0;3,0;1,0;row;1,0;False;False;False;1,19900012016;True;0,762999773026
PHS1997w;experiment;2017-05-02-09-58-08;13,0;17,0;1000;3,0;2,0;0,0;1,0;column;1,0;True;False;True;1,53399991989;True;1,32899999619
PHS1997w;experiment;2017-05-02-09-58-08;13,0;18,0;1000;3,0;1,0;0,0;2,0;column;1,0;True;True;True;2,09999990463;True;1,09700012207
PHS1997w;experiment;2017-05-02-09-58-08;13,0;19,0;1000;2,0;3,0;1,0;0,0;column;1,0;False;False;True;1,33300018311;False;1,19499993324
PHS1997w;experiment;2017-05-02-09-58-08;13,0;20,0;1000;3,0;1,0;2,0;0,0;column;0,0;False;False;False;1,5;True;1,13000011444
PHS1997w;experiment;2017-05-02-09-58-08;13,0;21,0;1000;2,0;3,0;1,0;0,0;column;0,0;False;True;False;1,62999987602;True;1,39800000191
PHS1997w;experiment;2017-05-02-09-58-08;13,0;22,0;1000;0,0;2,0;3,0;1,0;column;1,0;False;False;False;1,66599988937;True;0,768999814987
PHS1997w;experiment;2017-05-02-09-58-08;13,0;23,0;1000;2,0;3,0;1,0;0,0;row;1,0;False;False;False;1,73300004005;True;0,927999973297
PHS1997w;experiment;2017-05-02-09-58-08;13,0;24,0;1000;0,0;3,0;2,0;1,0;row;1,0;True;True;True;1,93299984932;True;0,862999916077
PHS1997w;experiment;2017-05-02-09-58-08;13,0;25,0;1000;1,0;2,0;0,0;3,0;row;0,0;False;True;False;1,46700000763;True;1,42899990082
PHS1997w;experiment;2017-05-02-09-58-08;13,0;26,0;1000;0,0;3,0;2,0;1,0;column;1,0;False;False;False;1,59999990463;True;1,3679997921
PHS1997w;experiment;2017-05-02-09-58-08;13,0;27,0;1000;0,0;3,0;2,0;1,0;row;1,0;False;False;False;1,33400011063;True;0,65700006485
PHS1997w;experiment;2017-05-02-09-58-08;13,0;28,0;1000;3,0;2,0;0,0;1,0;row;0,0;True;False;True;1,26800012589;True;0,830999851227
PHS1997w;experiment;2017-05-02-09-58-08;13,0;29,0;1000;2,0;1,0;0,0;3,0;row;0,0;True;False;False;1,59899997711;False;0,898999929428
PHS1997w;experiment;2017-05-02-09-58-08;13,0;30,0;1000;1,0;0,0;2,0;3,0;column;1,0;True;False;True;1,33199977875;True;0,864000082016
PHS1997w;experiment;2017-05-02-09-58-08;13,0;31,0;1000;2,0;0,0;1,0;3,0;row;1,0;False;False;False;1,03099989891;True;1,03899979591
PHS1997w;experiment;2017-05-02-09-58-08;13,0;32,0;1000;0,0;1,0;3,0;2,0;column;0,0;False;True;False;1,06700015068;True;1,02500009537
PHS1997w;experiment;2017-05-02-09-58-08;13,0;33,0;1000;1,0;2,0;0,0;3,0;row;1,0;True;False;True;1,33399987221;True;1,32899999619
PHS1997w;experiment;2017-05-02-09-58-08;13,0;34,0;1000;3,0;0,0;2,0;1,0;column;1,0;True;True;False;2,06599998474;False;0,737999916077
PHS1997w;experiment;2017-05-02-09-58-08;13,0;35,0;1000;1,0;2,0;3,0;0,0;column;0,0;False;True;False;1,00099992752;True;0,631999969482
PHS1997w;experiment;2017-05-02-09-58-08;13,0;36,0;1000;3,0;1,0;0,0;2,0;row;0,0;True;True;True;1,99900007248;True;1,42900013924
PHS1997w;experiment;2017-05-02-09-58-08;13,0;37,0;1000;0,0;1,0;3,0;2,0;row;1,0;False;False;False;0,799000024796;True;1,36800003052
PHS1997w;experiment;2017-05-02-09-58-08;13,0;38,0;1000;3,0;2,0;1,0;0,0;row;1,0;False;False;False;1,632999897;True;1,32799983025
PHS1997w;experiment;2017-05-02-09-58-08;13,0;39,0;1000;0,0;3,0;2,0;1,0;row;0,0;False;False;False;1,49900007248;True;1,29699993134
PHS1997w;experiment;2017-05-02-09-58-08;13,0;40,0;1000;0,0;2,0;1,0;3,0;column;1,0;True;False;True;1,16600012779;True;0,703000068665
PHS1997w;experiment;2017-05-02-09-58-08;13,0;41,0;1000;2,0;0,0;3,0;1,0;column;0,0;True;True;True;1,53199982643;True;1,06399989128
PHS1997w;experiment;2017-05-02-09-58-08;13,0;42,0;1000;1,0;0,0;2,0;3,0;row;0,0;True;False;True;1,53299999237;True;1,30100011826
PHS1997w;experiment;2017-05-02-09-58-08;13,0;43,0;1000;2,0;0,0;1,0;3,0;row;0,0;True;False;True;1,0;True;0,700000047684
PHS1997w;experiment;2017-05-02-09-58-08;13,0;44,0;1000;2,0;3,0;0,0;1,0;row;1,0;False;False;False;1,26600003242;True;0,563000202179
PHS1997w;experiment;2017-05-02-09-58-08;13,0;45,0;1000;1,0;0,0;3,0;2,0;column;0,0;False;True;False;1,90100002289;True;0,860999822617
PHS1997w;experiment;2017-05-02-09-58-08;13,0;46,0;1000;3,0;2,0;1,0;0,0;column;0,0;True;True;True;1,76599979401;True;0,933000087738
PHS1997w;experiment;2017-05-02-09-58-08;13,0;47,0;1000;1,0;0,0;2,0;3,0;column;1,0;False;True;False;1,16700005531;True;0,93499994278
PHS1997w;experiment;2017-05-02-09-58-08;13,0;48,0;1000;0,0;2,0;1,0;3,0;column;0,0;True;True;True;1,23300004005;True;1,09400010109
