Observer;Condition;SessionID;Block;Trial;COA;Color0;Color1;Color2;Color3;Target;Which;Match;FlipComplimentary;Response;RT;Correct;OnsetDelay
PSK1994w;experiment;2017-05-04-18-33-18;1,0;1,0;-100;1,0;0,0;3,0;2,0;column;1,0;True;True;True;5,1179997921;True;1,25099992752
PSK1994w;experiment;2017-05-04-18-33-18;1,0;2,0;-100;0,0;1,0;2,0;3,0;row;0,0;False;True;False;3,25099992752;True;0,590000152588
PSK1994w;experiment;2017-05-04-18-33-18;1,0;3,0;-100;3,0;2,0;1,0;0,0;row;1,0;True;False;True;2,31500005722;True;0,901000022888
PSK1994w;experiment;2017-05-04-18-33-18;1,0;4,0;-100;2,0;3,0;0,0;1,0;row;1,0;False;False;False;3,55199980736;True;1,49799990654
PSK1994w;experiment;2017-05-04-18-33-18;1,0;5,0;-100;0,0;3,0;2,0;1,0;column;1,0;True;True;False;2,27999997139;False;0,59700012207
PSK1994w;experiment;2017-05-04-18-33-18;1,0;6,0;-100;2,0;0,0;3,0;1,0;row;0,0;True;False;True;3,98299980164;True;0,763000011444
PSK1994w;experiment;2017-05-04-18-33-18;1,0;7,0;-100;2,0;1,0;3,0;0,0;column;1,0;False;True;False;3,18300008774;True;0,601999998093
PSK1994w;experiment;2017-05-04-18-33-18;1,0;8,0;-100;2,0;1,0;3,0;0,0;column;1,0;True;True;True;3,94999980927;True;0,863999843597
PSK1994w;experiment;2017-05-04-18-33-18;1,0;9,0;-100;1,0;2,0;3,0;0,0;row;1,0;False;False;False;1,48399996758;True;1,39400005341
PSK1994w;experiment;2017-05-04-18-33-18;1,0;10,0;-100;1,0;3,0;2,0;0,0;row;0,0;True;False;True;2,81699991226;True;0,654000043869
PSK1994w;experiment;2017-05-04-18-33-18;1,0;11,0;-100;1,0;0,0;2,0;3,0;column;0,0;True;True;True;3,58399987221;True;1,49500012398
PSK1994w;experiment;2017-05-04-18-33-18;1,0;12,0;-100;0,0;3,0;1,0;2,0;row;0,0;False;False;False;2,28400015831;True;0,895999908447
PSK1994w;experiment;2017-05-04-18-33-18;1,0;13,0;-100;1,0;3,0;2,0;0,0;row;1,0;False;False;False;1,75;True;0,911000013351
PSK1994w;experiment;2017-05-04-18-33-18;1,0;14,0;-100;2,0;1,0;3,0;0,0;column;0,0;True;False;True;2,41700005531;True;1,29699993134
PSK1994w;experiment;2017-05-04-18-33-18;1,0;15,0;-100;3,0;2,0;0,0;1,0;column;1,0;False;False;False;2,18300008774;True;1,16399979591
PSK1994w;experiment;2017-05-04-18-33-18;1,0;16,0;-100;0,0;2,0;3,0;1,0;row;1,0;False;False;False;2,04999995232;True;0,697000026703
PSK1994w;experiment;2017-05-04-18-33-18;1,0;17,0;-100;2,0;0,0;1,0;3,0;row;1,0;False;False;False;1,58299994469;True;1,46700000763
PSK1994w;experiment;2017-05-04-18-33-18;1,0;18,0;-100;0,0;2,0;1,0;3,0;column;0,0;True;False;True;1,75;True;0,664000034332
PSK1994w;experiment;2017-05-04-18-33-18;1,0;19,0;-100;2,0;0,0;1,0;3,0;column;1,0;False;False;False;1,617000103;True;0,665999889374
PSK1994w;experiment;2017-05-04-18-33-18;1,0;20,0;-100;3,0;0,0;1,0;2,0;row;1,0;True;False;True;2,45000004768;True;1,13100004196
PSK1994w;experiment;2017-05-04-18-33-18;1,0;21,0;-100;0,0;1,0;3,0;2,0;row;1,0;False;False;False;1,81699991226;True;1,16299986839
PSK1994w;experiment;2017-05-04-18-33-18;1,0;22,0;-100;2,0;3,0;1,0;0,0;column;1,0;True;False;False;3,61599993706;False;0,729000091553
PSK1994w;experiment;2017-05-04-18-33-18;1,0;23,0;-100;1,0;3,0;2,0;0,0;row;0,0;False;True;False;2,87999987602;True;0,996999979019
PSK1994w;experiment;2017-05-04-18-33-18;1,0;24,0;-100;0,0;1,0;3,0;2,0;row;0,0;True;True;True;3,3149998188;True;0,794999837875
PSK1994w;experiment;2017-05-04-18-33-18;1,0;25,0;-100;3,0;1,0;2,0;0,0;column;0,0;False;True;False;2,31599998474;True;1,2009999752
PSK1994w;experiment;2017-05-04-18-33-18;1,0;26,0;-100;2,0;3,0;1,0;0,0;column;0,0;False;True;False;1,34999990463;True;0,798000097275
PSK1994w;experiment;2017-05-04-18-33-18;1,0;27,0;-100;2,0;0,0;3,0;1,0;row;1,0;False;False;False;2,74900007248;True;1,23099994659
PSK1994w;experiment;2017-05-04-18-33-18;1,0;28,0;-100;1,0;2,0;3,0;0,0;column;1,0;False;True;False;1,08399987221;True;1,10100007057
PSK1994w;experiment;2017-05-04-18-33-18;1,0;29,0;-100;3,0;0,0;2,0;1,0;column;1,0;True;False;True;1,94799995422;True;1,1970000267
PSK1994w;experiment;2017-05-04-18-33-18;1,0;30,0;-100;1,0;3,0;2,0;0,0;column;0,0;True;False;True;1,382999897;True;1,03800010681
PSK1994w;experiment;2017-05-04-18-33-18;1,0;31,0;-100;2,0;1,0;3,0;0,0;row;1,0;True;False;True;2,18200016022;True;1,25699996948
PSK1994w;experiment;2017-05-04-18-33-18;1,0;32,0;-100;2,0;3,0;0,0;1,0;row;0,0;False;False;False;3,91799998283;True;1,26600003242
PSK1994w;experiment;2017-05-04-18-33-18;1,0;33,0;-100;0,0;1,0;2,0;3,0;column;1,0;False;True;False;0,982999801636;True;0,604000091553
PSK1994w;experiment;2017-05-04-18-33-18;1,0;34,0;-100;1,0;3,0;2,0;0,0;row;1,0;True;False;True;4,04800009727;True;0,860000133514
PSK1994w;experiment;2017-05-04-18-33-18;1,0;35,0;-100;3,0;2,0;0,0;1,0;row;0,0;True;False;False;1,98299980164;False;0,99799990654
PSK1994w;experiment;2017-05-04-18-33-18;1,0;36,0;-100;0,0;3,0;2,0;1,0;column;0,0;False;False;False;2,61500000954;True;0,828999996185
PSK1994w;experiment;2017-05-04-18-33-18;1,0;37,0;-100;3,0;0,0;1,0;2,0;column;1,0;False;False;False;3,14700007439;True;0,630999803543
PSK1994w;experiment;2017-05-04-18-33-18;1,0;38,0;-100;1,0;2,0;3,0;0,0;row;0,0;False;False;False;1,0490000248;True;0,862999916077
PSK1994w;experiment;2017-05-04-18-33-18;1,0;39,0;-100;1,0;0,0;2,0;3,0;row;0,0;False;False;False;1,18200016022;True;1,40499997139
PSK1994w;experiment;2017-05-04-18-33-18;1,0;40,0;-100;0,0;1,0;2,0;3,0;column;0,0;False;True;False;1,91799998283;True;1,39999985695
PSK1994w;experiment;2017-05-04-18-33-18;1,0;41,0;-100;3,0;0,0;2,0;1,0;row;1,0;True;False;True;1,55099987984;True;1,52999997139
PSK1994w;experiment;2017-05-04-18-33-18;1,0;42,0;-100;0,0;3,0;2,0;1,0;column;1,0;False;True;False;1,5490000248;True;0,865000009537
PSK1994w;experiment;2017-05-04-18-33-18;1,0;43,0;-100;1,0;3,0;0,0;2,0;row;0,0;False;False;False;1,1819999218;True;0,731000185013
PSK1994w;experiment;2017-05-04-18-33-18;1,0;44,0;-100;2,0;3,0;1,0;0,0;column;1,0;False;False;False;0,982999801636;True;1,16799998283
PSK1994w;experiment;2017-05-04-18-33-18;1,0;45,0;-100;2,0;1,0;3,0;0,0;row;1,0;False;True;False;1,51699995995;True;1,33200001717
PSK1994w;experiment;2017-05-04-18-33-18;1,0;46,0;-100;2,0;0,0;3,0;1,0;column;1,0;False;False;False;1,18400001526;True;0,862999916077
PSK1994w;experiment;2017-05-04-18-33-18;1,0;47,0;-100;0,0;2,0;3,0;1,0;column;1,0;False;False;False;1,34899997711;True;1,29299998283
PSK1994w;experiment;2017-05-04-18-33-18;1,0;48,0;-100;3,0;2,0;0,0;1,0;column;1,0;True;True;True;1,65100002289;True;1,19499993324
PSK1994w;experiment;2017-05-04-18-33-18;2,0;1,0;100;3,0;2,0;1,0;0,0;column;0,0;False;False;False;5,19799995422;True;1,09500002861
PSK1994w;experiment;2017-05-04-18-33-18;2,0;2,0;100;0,0;1,0;3,0;2,0;row;0,0;False;True;False;1,66499996185;True;0,903000116348
PSK1994w;experiment;2017-05-04-18-33-18;2,0;3,0;100;0,0;2,0;1,0;3,0;column;0,0;True;False;True;1,53299999237;True;0,927999973297
PSK1994w;experiment;2017-05-04-18-33-18;2,0;4,0;100;1,0;2,0;3,0;0,0;column;1,0;True;False;True;1,86599993706;True;1,16499996185
PSK1994w;experiment;2017-05-04-18-33-18;2,0;5,0;100;1,0;0,0;3,0;2,0;row;1,0;True;True;True;1,867000103;True;1,06599998474
PSK1994w;experiment;2017-05-04-18-33-18;2,0;6,0;100;0,0;2,0;1,0;3,0;column;1,0;False;True;False;1,16699981689;True;1,19600009918
PSK1994w;experiment;2017-05-04-18-33-18;2,0;7,0;100;0,0;2,0;3,0;1,0;row;0,0;False;True;False;2,30000019073;True;1,32899999619
PSK1994w;experiment;2017-05-04-18-33-18;2,0;8,0;100;1,0;2,0;0,0;3,0;column;1,0;False;True;False;1,09999990463;True;0,653000116348
PSK1994w;experiment;2017-05-04-18-33-18;2,0;9,0;100;0,0;2,0;1,0;3,0;row;0,0;False;False;False;1,70000004768;True;0,624000072479
PSK1994w;experiment;2017-05-04-18-33-18;2,0;10,0;100;2,0;3,0;1,0;0,0;column;1,0;False;True;False;4,83399987221;True;0,963000059128
PSK1994w;experiment;2017-05-04-18-33-18;2,0;11,0;100;0,0;3,0;1,0;2,0;column;0,0;False;True;False;1,03299999237;True;0,731999874115
PSK1994w;experiment;2017-05-04-18-33-18;2,0;12,0;100;0,0;2,0;1,0;3,0;column;1,0;True;False;True;1,86599993706;True;0,857000112534
PSK1994w;experiment;2017-05-04-18-33-18;2,0;13,0;100;2,0;0,0;1,0;3,0;row;1,0;False;False;True;1,59899997711;False;1,3900001049
PSK1994w;experiment;2017-05-04-18-33-18;2,0;14,0;100;1,0;3,0;2,0;0,0;column;0,0;False;True;False;2,29999995232;True;0,638000011444
PSK1994w;experiment;2017-05-04-18-33-18;2,0;15,0;100;2,0;0,0;1,0;3,0;row;0,0;False;False;False;0,967000007629;True;0,961999893188
PSK1994w;experiment;2017-05-04-18-33-18;2,0;16,0;100;1,0;0,0;3,0;2,0;column;0,0;True;False;True;2,33300018311;True;0,56299996376
PSK1994w;experiment;2017-05-04-18-33-18;2,0;17,0;100;3,0;1,0;2,0;0,0;row;0,0;False;False;False;0,966999769211;True;1,08999991417
PSK1994w;experiment;2017-05-04-18-33-18;2,0;18,0;100;2,0;1,0;3,0;0,0;column;1,0;False;True;False;2,5;True;1,13099980354
PSK1994w;experiment;2017-05-04-18-33-18;2,0;19,0;100;3,0;0,0;2,0;1,0;row;1,0;False;True;False;1,33299994469;True;1,26600003242
PSK1994w;experiment;2017-05-04-18-33-18;2,0;20,0;100;3,0;2,0;0,0;1,0;column;1,0;True;True;True;2,16699981689;True;1,09500002861
PSK1994w;experiment;2017-05-04-18-33-18;2,0;21,0;100;1,0;3,0;0,0;2,0;column;0,0;False;True;False;2,53300023079;True;1,09800004959
PSK1994w;experiment;2017-05-04-18-33-18;2,0;22,0;100;3,0;1,0;0,0;2,0;column;1,0;False;False;False;1,60000014305;True;1,29399991035
PSK1994w;experiment;2017-05-04-18-33-18;2,0;23,0;100;1,0;3,0;0,0;2,0;row;0,0;False;True;False;1,16700005531;True;0,927999973297
PSK1994w;experiment;2017-05-04-18-33-18;2,0;24,0;100;3,0;1,0;0,0;2,0;row;1,0;False;False;False;1,60100007057;True;1,09100008011
PSK1994w;experiment;2017-05-04-18-33-18;2,0;25,0;100;3,0;1,0;2,0;0,0;row;1,0;True;False;True;1,90000009537;True;0,798000097275
PSK1994w;experiment;2017-05-04-18-33-18;2,0;26,0;100;0,0;3,0;1,0;2,0;row;0,0;True;False;True;1,36600017548;True;0,740000009537
PSK1994w;experiment;2017-05-04-18-33-18;2,0;27,0;100;1,0;0,0;3,0;2,0;column;0,0;False;True;False;2,39900016785;True;1,26399993896
PSK1994w;experiment;2017-05-04-18-33-18;2,0;28,0;100;1,0;3,0;0,0;2,0;column;1,0;False;False;False;4,46500015259;True;1,22299981117
PSK1994w;experiment;2017-05-04-18-33-18;2,0;29,0;100;1,0;0,0;2,0;3,0;column;0,0;True;False;True;1,20000004768;True;1,06500005722
PSK1994w;experiment;2017-05-04-18-33-18;2,0;30,0;100;2,0;3,0;0,0;1,0;row;1,0;True;True;True;1,80100011826;True;1,03299999237
PSK1994w;experiment;2017-05-04-18-33-18;2,0;31,0;100;3,0;0,0;1,0;2,0;column;0,0;True;False;False;2,39999985695;False;0,898000001907
PSK1994w;experiment;2017-05-04-18-33-18;2,0;32,0;100;0,0;1,0;2,0;3,0;column;0,0;True;True;True;2,0;True;1,09700012207
PSK1994w;experiment;2017-05-04-18-33-18;2,0;33,0;100;1,0;3,0;2,0;0,0;row;1,0;True;False;True;1,73399996758;True;1,49699997902
PSK1994w;experiment;2017-05-04-18-33-18;2,0;34,0;100;0,0;3,0;2,0;1,0;column;0,0;False;False;False;1,13399982452;True;0,537000179291
PSK1994w;experiment;2017-05-04-18-33-18;2,0;35,0;100;1,0;2,0;0,0;3,0;row;0,0;True;True;True;1,89999985695;True;0,829999923706
PSK1994w;experiment;2017-05-04-18-33-18;2,0;36,0;100;0,0;2,0;1,0;3,0;row;1,0;True;False;True;1,56599998474;True;1,06399989128
PSK1994w;experiment;2017-05-04-18-33-18;2,0;37,0;100;2,0;1,0;0,0;3,0;column;1,0;False;False;False;0,865999937057;True;1,06399989128
PSK1994w;experiment;2017-05-04-18-33-18;2,0;38,0;100;2,0;0,0;3,0;1,0;column;1,0;True;True;True;2,06700015068;True;1,49900007248
PSK1994w;experiment;2017-05-04-18-33-18;2,0;39,0;100;0,0;2,0;3,0;1,0;row;1,0;True;True;True;2,66599988937;True;1,06999993324
PSK1994w;experiment;2017-05-04-18-33-18;2,0;40,0;100;3,0;2,0;1,0;0,0;row;0,0;True;False;True;1,66600012779;True;1,43099999428
PSK1994w;experiment;2017-05-04-18-33-18;2,0;41,0;100;2,0;0,0;1,0;3,0;column;0,0;True;True;False;5,59899997711;False;0,737999916077
PSK1994w;experiment;2017-05-04-18-33-18;2,0;42,0;100;1,0;0,0;3,0;2,0;column;1,0;True;True;False;2,59999990463;False;0,969000101089
PSK1994w;experiment;2017-05-04-18-33-18;2,0;43,0;100;1,0;3,0;0,0;2,0;row;0,0;True;False;True;1,33300018311;True;1,12800002098
PSK1994w;experiment;2017-05-04-18-33-18;2,0;44,0;100;2,0;0,0;1,0;3,0;column;1,0;False;True;False;1,26600003242;True;1,19099998474
PSK1994w;experiment;2017-05-04-18-33-18;2,0;45,0;100;2,0;0,0;3,0;1,0;column;1,0;False;False;False;2,03299999237;True;1,50100016594
PSK1994w;experiment;2017-05-04-18-33-18;2,0;46,0;100;1,0;0,0;2,0;3,0;row;1,0;False;True;False;1,06599998474;True;0,694000005722
PSK1994w;experiment;2017-05-04-18-33-18;2,0;47,0;100;2,0;0,0;3,0;1,0;column;0,0;True;False;True;2,03399991989;True;0,995000123978
PSK1994w;experiment;2017-05-04-18-33-18;2,0;48,0;100;0,0;1,0;3,0;2,0;column;1,0;False;False;False;1,0;True;1,4929997921
PSK1994w;experiment;2017-05-04-18-33-18;3,0;1,0;1000;2,0;0,0;1,0;3,0;row;1,0;False;True;False;1,86599993706;True;0,825000047684
PSK1994w;experiment;2017-05-04-18-33-18;3,0;2,0;1000;1,0;0,0;2,0;3,0;column;0,0;True;True;True;2,43299984932;True;1,12800002098
PSK1994w;experiment;2017-05-04-18-33-18;3,0;3,0;1000;0,0;2,0;1,0;3,0;row;0,0;True;False;True;1,867000103;True;1,43700003624
PSK1994w;experiment;2017-05-04-18-33-18;3,0;4,0;1000;1,0;3,0;2,0;0,0;column;0,0;False;False;False;0,900000095367;True;0,695999860764
PSK1994w;experiment;2017-05-04-18-33-18;3,0;5,0;1000;2,0;1,0;3,0;0,0;row;1,0;True;True;True;3,59899997711;True;1,19599986076
PSK1994w;experiment;2017-05-04-18-33-18;3,0;6,0;1000;3,0;2,0;1,0;0,0;column;0,0;False;False;False;3,63199996948;True;0,863000154495
PSK1994w;experiment;2017-05-04-18-33-18;3,0;7,0;1000;1,0;3,0;2,0;0,0;row;1,0;True;False;True;2,43400001526;True;1,10199999809
PSK1994w;experiment;2017-05-04-18-33-18;3,0;8,0;1000;1,0;0,0;3,0;2,0;row;0,0;False;False;False;3,2990000248;True;0,563999891281
PSK1994w;experiment;2017-05-04-18-33-18;3,0;9,0;1000;2,0;0,0;3,0;1,0;row;0,0;True;True;True;2,90100002289;True;1,25999999046
PSK1994w;experiment;2017-05-04-18-33-18;3,0;10,0;1000;1,0;0,0;2,0;3,0;row;0,0;True;True;True;1,93300008774;True;0,600999832153
PSK1994w;experiment;2017-05-04-18-33-18;3,0;11,0;1000;1,0;2,0;0,0;3,0;column;1,0;True;True;True;3,16599988937;True;0,587999820709
PSK1994w;experiment;2017-05-04-18-33-18;3,0;12,0;1000;3,0;2,0;0,0;1,0;row;0,0;False;True;False;4,2009999752;True;0,833000183105
PSK1994w;experiment;2017-05-04-18-33-18;3,0;13,0;1000;0,0;2,0;3,0;1,0;row;1,0;True;True;True;2,13199996948;True;1,29700016975
PSK1994w;experiment;2017-05-04-18-33-18;3,0;14,0;1000;3,0;2,0;1,0;0,0;row;0,0;False;False;False;3,46700000763;True;1,19800019264
PSK1994w;experiment;2017-05-04-18-33-18;3,0;15,0;1000;2,0;1,0;3,0;0,0;row;0,0;False;True;False;2,06599998474;True;1,13599991798
PSK1994w;experiment;2017-05-04-18-33-18;3,0;16,0;1000;3,0;0,0;2,0;1,0;row;0,0;True;True;True;1,16600012779;True;1,10099983215
PSK1994w;experiment;2017-05-04-18-33-18;3,0;17,0;1000;3,0;2,0;1,0;0,0;column;1,0;False;False;True;8,46600008011;False;0,963999986649
PSK1994w;experiment;2017-05-04-18-33-18;3,0;18,0;1000;2,0;0,0;3,0;1,0;column;0,0;False;False;False;1,96700000763;True;1,46600008011
PSK1994w;experiment;2017-05-04-18-33-18;3,0;19,0;1000;0,0;1,0;3,0;2,0;row;0,0;False;True;False;3,69799995422;True;0,899999856949
PSK1994w;experiment;2017-05-04-18-33-18;3,0;20,0;1000;1,0;3,0;2,0;0,0;row;1,0;False;True;False;4,59899997711;True;0,664999961853
PSK1994w;experiment;2017-05-04-18-33-18;3,0;21,0;1000;2,0;3,0;0,0;1,0;column;1,0;True;True;True;3,43299984932;True;1,46700000763
PSK1994w;experiment;2017-05-04-18-33-18;3,0;22,0;1000;3,0;1,0;0,0;2,0;row;0,0;True;True;True;1,73300004005;True;0,666999816895
PSK1994w;experiment;2017-05-04-18-33-18;3,0;23,0;1000;1,0;0,0;2,0;3,0;column;0,0;False;True;False;1,43400001526;True;1,26699995995
PSK1994w;experiment;2017-05-04-18-33-18;3,0;24,0;1000;3,0;2,0;0,0;1,0;column;1,0;True;False;False;1,06600022316;False;0,996999979019
PSK1994w;experiment;2017-05-04-18-33-18;3,0;25,0;1000;2,0;3,0;1,0;0,0;row;1,0;False;False;True;4,69900012016;False;1,33200001717
PSK1994w;experiment;2017-05-04-18-33-18;3,0;26,0;1000;1,0;2,0;3,0;0,0;column;0,0;False;False;False;1,63400006294;True;1,05599999428
PSK1994w;experiment;2017-05-04-18-33-18;3,0;27,0;1000;3,0;1,0;0,0;2,0;row;1,0;False;True;True;1,76599979401;False;1,15599989891
PSK1994w;experiment;2017-05-04-18-33-18;3,0;28,0;1000;1,0;2,0;3,0;0,0;column;1,0;True;True;False;4,73399996758;False;1,09599995613
PSK1994w;experiment;2017-05-04-18-33-18;3,0;29,0;1000;2,0;1,0;0,0;3,0;column;0,0;False;True;False;1,03299999237;True;1,2009999752
PSK1994w;experiment;2017-05-04-18-33-18;3,0;30,0;1000;3,0;1,0;2,0;0,0;column;0,0;True;True;True;1,86600017548;True;0,764999866486
PSK1994w;experiment;2017-05-04-18-33-18;3,0;31,0;1000;1,0;0,0;3,0;2,0;row;1,0;False;True;False;2,09899997711;True;1,39599990845
PSK1994w;experiment;2017-05-04-18-33-18;3,0;32,0;1000;3,0;0,0;2,0;1,0;column;1,0;False;True;False;2,6970000267;True;0,696000099182
PSK1994w;experiment;2017-05-04-18-33-18;3,0;33,0;1000;3,0;1,0;0,0;2,0;column;0,0;False;True;False;1,5;True;0,505000114441
PSK1994w;experiment;2017-05-04-18-33-18;3,0;34,0;1000;3,0;0,0;1,0;2,0;column;0,0;False;True;False;1,09999990463;True;0,695999860764
PSK1994w;experiment;2017-05-04-18-33-18;3,0;35,0;1000;2,0;3,0;0,0;1,0;column;0,0;True;False;True;2,26700019836;True;1,0
PSK1994w;experiment;2017-05-04-18-33-18;3,0;36,0;1000;3,0;2,0;0,0;1,0;row;1,0;False;False;False;1,33300018311;True;0,561999797821
PSK1994w;experiment;2017-05-04-18-33-18;3,0;37,0;1000;3,0;1,0;0,0;2,0;row;0,0;False;True;False;2,10000014305;True;1,19600009918
PSK1994w;experiment;2017-05-04-18-33-18;3,0;38,0;1000;2,0;3,0;1,0;0,0;row;0,0;False;True;False;3,20199990273;True;0,928999900818
PSK1994w;experiment;2017-05-04-18-33-18;3,0;39,0;1000;0,0;1,0;2,0;3,0;row;1,0;True;False;True;1,86699986458;True;0,970999956131
PSK1994w;experiment;2017-05-04-18-33-18;3,0;40,0;1000;0,0;2,0;1,0;3,0;column;1,0;False;False;False;1,1289999485;True;0,59500002861
PSK1994w;experiment;2017-05-04-18-33-18;3,0;41,0;1000;3,0;2,0;1,0;0,0;row;1,0;False;False;False;3,70000004768;True;1,23000001907
PSK1994w;experiment;2017-05-04-18-33-18;3,0;42,0;1000;1,0;2,0;0,0;3,0;row;0,0;False;False;False;2,0;True;1,06500005722
PSK1994w;experiment;2017-05-04-18-33-18;3,0;43,0;1000;3,0;0,0;1,0;2,0;row;0,0;False;False;False;2,60100007057;True;0,594999790192
PSK1994w;experiment;2017-05-04-18-33-18;3,0;44,0;1000;3,0;0,0;1,0;2,0;column;0,0;True;False;True;2,29999995232;True;0,826999902725
PSK1994w;experiment;2017-05-04-18-33-18;3,0;45,0;1000;0,0;1,0;3,0;2,0;row;1,0;False;True;False;3,59999990463;True;1,09000015259
PSK1994w;experiment;2017-05-04-18-33-18;3,0;46,0;1000;0,0;2,0;3,0;1,0;column;1,0;False;True;False;3,06700015068;True;1,03200006485
PSK1994w;experiment;2017-05-04-18-33-18;3,0;47,0;1000;0,0;2,0;3,0;1,0;row;0,0;True;True;True;1,76699995995;True;1,26899981499
PSK1994w;experiment;2017-05-04-18-33-18;3,0;48,0;1000;3,0;2,0;0,0;1,0;column;0,0;True;False;True;1,367000103;True;1,27399992943
PSK1994w;experiment;2017-05-04-18-33-18;4,0;1,0;100;3,0;1,0;2,0;0,0;column;0,0;True;False;True;1,867000103;True;1,35599994659
PSK1994w;experiment;2017-05-04-18-33-18;4,0;2,0;100;3,0;0,0;2,0;1,0;row;0,0;True;True;True;1,60000014305;True;0,630000114441
PSK1994w;experiment;2017-05-04-18-33-18;4,0;3,0;100;1,0;2,0;3,0;0,0;column;1,0;False;True;False;1,5;True;0,966000080109
PSK1994w;experiment;2017-05-04-18-33-18;4,0;4,0;100;3,0;2,0;1,0;0,0;row;1,0;False;True;False;1,19799995422;True;1,16299986839
PSK1994w;experiment;2017-05-04-18-33-18;4,0;5,0;100;3,0;0,0;2,0;1,0;row;0,0;False;True;False;1,83100008965;True;1,27800011635
PSK1994w;experiment;2017-05-04-18-33-18;4,0;6,0;100;3,0;1,0;0,0;2,0;column;0,0;False;True;False;1,73300004005;True;0,802999973297
PSK1994w;experiment;2017-05-04-18-33-18;4,0;7,0;100;3,0;0,0;1,0;2,0;column;1,0;False;True;False;2,29999995232;True;1,29699993134
PSK1994w;experiment;2017-05-04-18-33-18;4,0;8,0;100;2,0;3,0;1,0;0,0;column;0,0;True;True;True;2,76600003242;True;0,697999954224
PSK1994w;experiment;2017-05-04-18-33-18;4,0;9,0;100;3,0;0,0;1,0;2,0;row;0,0;False;False;False;1,90000009537;True;0,835000038147
PSK1994w;experiment;2017-05-04-18-33-18;4,0;10,0;100;1,0;2,0;0,0;3,0;row;1,0;True;False;True;1,73300004005;True;1,13100004196
PSK1994w;experiment;2017-05-04-18-33-18;4,0;11,0;100;1,0;3,0;0,0;2,0;row;1,0;True;False;True;1,70000004768;True;1,40100002289
PSK1994w;experiment;2017-05-04-18-33-18;4,0;12,0;100;3,0;0,0;1,0;2,0;column;0,0;False;False;False;3,5;True;1,5
PSK1994w;experiment;2017-05-04-18-33-18;4,0;13,0;100;2,0;3,0;1,0;0,0;row;0,0;True;True;True;1,33399987221;True;0,960000038147
PSK1994w;experiment;2017-05-04-18-33-18;4,0;14,0;100;0,0;3,0;2,0;1,0;column;1,0;True;True;False;1,66600012779;False;1,26399993896
PSK1994w;experiment;2017-05-04-18-33-18;4,0;15,0;100;0,0;3,0;1,0;2,0;column;0,0;True;True;True;2,2650001049;True;1,19799995422
PSK1994w;experiment;2017-05-04-18-33-18;4,0;16,0;100;0,0;1,0;3,0;2,0;column;0,0;True;False;True;1,46799993515;True;1,16499996185
PSK1994w;experiment;2017-05-04-18-33-18;4,0;17,0;100;3,0;0,0;2,0;1,0;column;0,0;True;False;True;2,09999990463;True;1,09600019455
PSK1994w;experiment;2017-05-04-18-33-18;4,0;18,0;100;3,0;1,0;2,0;0,0;row;1,0;False;False;False;2,03099989891;True;0,561000108719
PSK1994w;experiment;2017-05-04-18-33-18;4,0;19,0;100;3,0;2,0;1,0;0,0;column;1,0;True;True;False;2,632999897;False;0,995000123978
PSK1994w;experiment;2017-05-04-18-33-18;4,0;20,0;100;1,0;0,0;2,0;3,0;row;0,0;False;False;False;2,26699995995;True;0,768999814987
PSK1994w;experiment;2017-05-04-18-33-18;4,0;21,0;100;1,0;2,0;3,0;0,0;column;0,0;False;True;False;1,13199996948;True;1,07000017166
PSK1994w;experiment;2017-05-04-18-33-18;4,0;22,0;100;3,0;0,0;2,0;1,0;column;0,0;False;True;False;1,53299999237;True;0,631000041962
PSK1994w;experiment;2017-05-04-18-33-18;4,0;23,0;100;1,0;0,0;3,0;2,0;row;0,0;False;True;False;2,06699991226;True;0,730999946594
PSK1994w;experiment;2017-05-04-18-33-18;4,0;24,0;100;3,0;1,0;0,0;2,0;row;0,0;True;True;True;1,96799993515;True;0,924999952316
PSK1994w;experiment;2017-05-04-18-33-18;4,0;25,0;100;2,0;0,0;1,0;3,0;column;0,0;False;False;False;2,76600003242;True;0,895000219345
PSK1994w;experiment;2017-05-04-18-33-18;4,0;26,0;100;3,0;2,0;1,0;0,0;row;1,0;True;False;True;1,76800012589;True;1,29800009727
PSK1994w;experiment;2017-05-04-18-33-18;4,0;27,0;100;1,0;2,0;0,0;3,0;column;0,0;False;False;False;2,09999990463;True;0,788000106812
PSK1994w;experiment;2017-05-04-18-33-18;4,0;28,0;100;3,0;1,0;0,0;2,0;row;1,0;True;False;True;2,09999990463;True;1,29800009727
PSK1994w;experiment;2017-05-04-18-33-18;4,0;29,0;100;0,0;2,0;3,0;1,0;column;1,0;False;True;False;3,86599993706;True;1,16700005531
PSK1994w;experiment;2017-05-04-18-33-18;4,0;30,0;100;1,0;2,0;3,0;0,0;row;1,0;True;False;True;2,59999990463;True;1,03500008583
PSK1994w;experiment;2017-05-04-18-33-18;4,0;31,0;100;3,0;1,0;2,0;0,0;column;1,0;True;True;False;3,06599998474;False;1,03699994087
PSK1994w;experiment;2017-05-04-18-33-18;4,0;32,0;100;1,0;0,0;3,0;2,0;column;1,0;False;True;False;4,96799993515;True;0,965000152588
PSK1994w;experiment;2017-05-04-18-33-18;4,0;33,0;100;1,0;2,0;3,0;0,0;row;0,0;False;False;False;1,39999985695;True;1,26300001144
PSK1994w;experiment;2017-05-04-18-33-18;4,0;34,0;100;2,0;3,0;0,0;1,0;row;0,0;True;False;True;7,60000014305;True;1,23199987411
PSK1994w;experiment;2017-05-04-18-33-18;4,0;35,0;100;3,0;2,0;0,0;1,0;row;1,0;False;False;False;1,26600003242;True;1,39499998093
PSK1994w;experiment;2017-05-04-18-33-18;4,0;36,0;100;2,0;0,0;1,0;3,0;row;1,0;True;False;True;1,69999980927;True;1,39700007439
PSK1994w;experiment;2017-05-04-18-33-18;4,0;37,0;100;3,0;2,0;0,0;1,0;row;1,0;True;False;True;1,93300008774;True;0,871000051498
PSK1994w;experiment;2017-05-04-18-33-18;4,0;38,0;100;1,0;2,0;3,0;0,0;column;0,0;True;False;True;1,29999995232;True;0,894999980927
PSK1994w;experiment;2017-05-04-18-33-18;4,0;39,0;100;0,0;2,0;1,0;3,0;row;0,0;True;False;True;1,03299999237;True;0,769000053406
PSK1994w;experiment;2017-05-04-18-33-18;4,0;40,0;100;0,0;3,0;2,0;1,0;row;0,0;False;True;False;1,20000004768;True;0,52999997139
PSK1994w;experiment;2017-05-04-18-33-18;4,0;41,0;100;2,0;0,0;3,0;1,0;row;0,0;True;False;True;2,0680000782;True;1,06399989128
PSK1994w;experiment;2017-05-04-18-33-18;4,0;42,0;100;0,0;1,0;2,0;3,0;row;1,0;True;False;True;3,06699991226;True;0,623000144958
PSK1994w;experiment;2017-05-04-18-33-18;4,0;43,0;100;1,0;0,0;2,0;3,0;column;1,0;False;True;False;1,63399982452;True;1,33500003815
PSK1994w;experiment;2017-05-04-18-33-18;4,0;44,0;100;0,0;3,0;2,0;1,0;column;1,0;False;False;False;3,50099992752;True;1,40499997139
PSK1994w;experiment;2017-05-04-18-33-18;4,0;45,0;100;1,0;0,0;2,0;3,0;row;1,0;True;True;True;5,26300001144;True;1,10199999809
PSK1994w;experiment;2017-05-04-18-33-18;4,0;46,0;100;2,0;1,0;3,0;0,0;column;0,0;False;False;False;1,36599993706;True;0,632999897003
PSK1994w;experiment;2017-05-04-18-33-18;4,0;47,0;100;2,0;3,0;0,0;1,0;row;1,0;False;False;False;1,69899988174;True;0,996999979019
PSK1994w;experiment;2017-05-04-18-33-18;4,0;48,0;100;0,0;1,0;3,0;2,0;row;1,0;False;True;True;2,06599998474;False;1,2610001564
PSK1994w;experiment;2017-05-04-18-33-18;5,0;1,0;1000;0,0;2,0;1,0;3,0;row;1,0;True;False;True;0,96599984169;True;1,06399989128
PSK1994w;experiment;2017-05-04-18-33-18;5,0;2,0;1000;0,0;1,0;3,0;2,0;column;1,0;False;True;True;1,74000000954;False;0,857999801636
PSK1994w;experiment;2017-05-04-18-33-18;5,0;3,0;1000;1,0;3,0;0,0;2,0;row;0,0;False;False;False;1,53299999237;True;1,42999982834
PSK1994w;experiment;2017-05-04-18-33-18;5,0;4,0;1000;0,0;2,0;3,0;1,0;row;1,0;False;True;False;2,06600022316;True;1,22500014305
PSK1994w;experiment;2017-05-04-18-33-18;5,0;5,0;1000;1,0;3,0;0,0;2,0;column;0,0;True;True;True;2,5;True;1,10299992561
PSK1994w;experiment;2017-05-04-18-33-18;5,0;6,0;1000;1,0;0,0;2,0;3,0;column;1,0;False;False;True;5,632999897;False;0,834000110626
PSK1994w;experiment;2017-05-04-18-33-18;5,0;7,0;1000;3,0;2,0;1,0;0,0;column;0,0;True;True;True;5,23300004005;True;1,4350001812
PSK1994w;experiment;2017-05-04-18-33-18;5,0;8,0;1000;3,0;0,0;1,0;2,0;column;1,0;True;True;True;2,83299994469;True;0,860000133514
PSK1994w;experiment;2017-05-04-18-33-18;5,0;9,0;1000;2,0;3,0;1,0;0,0;column;0,0;True;False;True;1,66700005531;True;1,30100011826
PSK1994w;experiment;2017-05-04-18-33-18;5,0;10,0;1000;0,0;1,0;3,0;2,0;column;0,0;False;True;False;1,60000014305;True;0,864000082016
PSK1994w;experiment;2017-05-04-18-33-18;5,0;11,0;1000;1,0;0,0;3,0;2,0;column;0,0;False;False;False;2,90000009537;True;1,50300002098
PSK1994w;experiment;2017-05-04-18-33-18;5,0;12,0;1000;2,0;3,0;0,0;1,0;row;1,0;True;False;True;5,33299994469;True;0,728000164032
PSK1994w;experiment;2017-05-04-18-33-18;5,0;13,0;1000;2,0;1,0;0,0;3,0;column;1,0;True;True;False;3,30000019073;False;0,667000055313
PSK1994w;experiment;2017-05-04-18-33-18;5,0;14,0;1000;0,0;3,0;1,0;2,0;row;0,0;True;False;True;1,56699991226;True;1,23000001907
PSK1994w;experiment;2017-05-04-18-33-18;5,0;15,0;1000;2,0;0,0;3,0;1,0;row;1,0;False;False;False;2,56699991226;True;0,796000003815
PSK1994w;experiment;2017-05-04-18-33-18;5,0;16,0;1000;2,0;0,0;3,0;1,0;column;1,0;True;False;True;1,5;True;1,26999998093
PSK1994w;experiment;2017-05-04-18-33-18;5,0;17,0;1000;1,0;3,0;0,0;2,0;column;1,0;True;False;True;9,60800004005;True;0,832000017166
PSK1994w;experiment;2017-05-04-18-33-18;5,0;18,0;1000;3,0;0,0;2,0;1,0;column;1,0;True;False;True;4,23200011253;True;0,536999940872
PSK1994w;experiment;2017-05-04-18-33-18;5,0;19,0;1000;2,0;3,0;1,0;0,0;column;1,0;False;False;False;2,83299994469;True;1,40200018883
PSK1994w;experiment;2017-05-04-18-33-18;5,0;20,0;1000;0,0;3,0;2,0;1,0;row;1,0;True;True;True;2,09999990463;True;0,56500005722
PSK1994w;experiment;2017-05-04-18-33-18;5,0;21,0;1000;1,0;2,0;3,0;0,0;row;1,0;False;True;False;1,19999980927;True;0,870000123978
PSK1994w;experiment;2017-05-04-18-33-18;5,0;22,0;1000;2,0;0,0;1,0;3,0;row;1,0;True;False;True;1,66600012779;True;1,00599980354
PSK1994w;experiment;2017-05-04-18-33-18;5,0;23,0;1000;3,0;1,0;2,0;0,0;row;1,0;True;True;True;2,06699991226;True;1,23399996758
PSK1994w;experiment;2017-05-04-18-33-18;5,0;24,0;1000;1,0;3,0;2,0;0,0;row;0,0;False;True;False;1,63300013542;True;0,93499994278
PSK1994w;experiment;2017-05-04-18-33-18;5,0;25,0;1000;0,0;2,0;1,0;3,0;column;0,0;True;True;True;1,33299994469;True;0,999000072479
PSK1994w;experiment;2017-05-04-18-33-18;5,0;26,0;1000;1,0;0,0;3,0;2,0;column;1,0;True;False;True;1,59999990463;True;1,03299999237
PSK1994w;experiment;2017-05-04-18-33-18;5,0;27,0;1000;0,0;1,0;3,0;2,0;row;0,0;True;False;False;2,26599979401;False;1,33500003815
PSK1994w;experiment;2017-05-04-18-33-18;5,0;28,0;1000;2,0;1,0;0,0;3,0;column;0,0;True;True;True;1,06700015068;True;1,39200019836
PSK1994w;experiment;2017-05-04-18-33-18;5,0;29,0;1000;1,0;0,0;2,0;3,0;row;1,0;False;True;False;4,90100002289;True;0,903000116348
PSK1994w;experiment;2017-05-04-18-33-18;5,0;30,0;1000;2,0;0,0;3,0;1,0;column;1,0;False;False;False;7,16300010681;True;1,46499991417
PSK1994w;experiment;2017-05-04-18-33-18;5,0;31,0;1000;3,0;1,0;2,0;0,0;row;1,0;False;True;True;5,0;False;0,696000099182
PSK1994w;experiment;2017-05-04-18-33-18;5,0;32,0;1000;1,0;3,0;0,0;2,0;column;0,0;False;False;False;1,73300004005;True;0,503999948502
PSK1994w;experiment;2017-05-04-18-33-18;5,0;33,0;1000;3,0;1,0;2,0;0,0;column;0,0;False;True;False;2,06699991226;True;1,50400018692
PSK1994w;experiment;2017-05-04-18-33-18;5,0;34,0;1000;0,0;1,0;2,0;3,0;column;1,0;True;False;True;2,70000004768;True;1,46099996567
PSK1994w;experiment;2017-05-04-18-33-18;5,0;35,0;1000;3,0;2,0;0,0;1,0;column;1,0;False;False;False;2,23300004005;True;1,03800010681
PSK1994w;experiment;2017-05-04-18-33-18;5,0;36,0;1000;3,0;1,0;2,0;0,0;row;0,0;True;False;True;1,53400015831;True;0,796999931335
PSK1994w;experiment;2017-05-04-18-33-18;5,0;37,0;1000;3,0;0,0;2,0;1,0;row;1,0;True;True;True;1,83399987221;True;1,32899999619
PSK1994w;experiment;2017-05-04-18-33-18;5,0;38,0;1000;0,0;3,0;1,0;2,0;column;0,0;False;False;False;2,73399996758;True;0,601999998093
PSK1994w;experiment;2017-05-04-18-33-18;5,0;39,0;1000;1,0;0,0;2,0;3,0;row;0,0;False;True;False;1,867000103;True;1,03600001335
PSK1994w;experiment;2017-05-04-18-33-18;5,0;40,0;1000;2,0;0,0;1,0;3,0;row;0,0;True;False;True;1,10000014305;True;1,28700017929
PSK1994w;experiment;2017-05-04-18-33-18;5,0;41,0;1000;1,0;2,0;3,0;0,0;row;0,0;False;False;False;1,76600003242;True;1,33700013161
PSK1994w;experiment;2017-05-04-18-33-18;5,0;42,0;1000;0,0;2,0;1,0;3,0;row;1,0;False;False;False;1,56599998474;True;1,5
PSK1994w;experiment;2017-05-04-18-33-18;5,0;43,0;1000;1,0;3,0;0,0;2,0;row;1,0;False;False;False;1,5;True;0,628999948502
PSK1994w;experiment;2017-05-04-18-33-18;5,0;44,0;1000;0,0;3,0;2,0;1,0;column;1,0;True;True;True;2,26600003242;True;1,15599989891
PSK1994w;experiment;2017-05-04-18-33-18;5,0;45,0;1000;1,0;2,0;3,0;0,0;row;1,0;True;False;True;1,40000009537;True;1,00300002098
PSK1994w;experiment;2017-05-04-18-33-18;5,0;46,0;1000;1,0;0,0;3,0;2,0;row;0,0;True;False;True;1,76699995995;True;0,728999853134
PSK1994w;experiment;2017-05-04-18-33-18;5,0;47,0;1000;3,0;0,0;1,0;2,0;column;1,0;False;False;False;1,20000004768;True;0,796000003815
PSK1994w;experiment;2017-05-04-18-33-18;5,0;48,0;1000;1,0;3,0;0,0;2,0;column;1,0;False;False;False;1,96799993515;True;0,823999881744
PSK1994w;experiment;2017-05-04-18-33-18;6,0;1,0;-100;3,0;0,0;1,0;2,0;column;1,0;True;False;True;2,18400001526;True;1,43200016022
PSK1994w;experiment;2017-05-04-18-33-18;6,0;2,0;-100;2,0;1,0;3,0;0,0;row;0,0;False;False;False;2,38199996948;True;1,22699999809
PSK1994w;experiment;2017-05-04-18-33-18;6,0;3,0;-100;3,0;1,0;0,0;2,0;column;0,0;False;True;False;1,38400006294;True;1,25500011444
PSK1994w;experiment;2017-05-04-18-33-18;6,0;4,0;-100;3,0;2,0;1,0;0,0;column;1,0;True;True;True;2,0490000248;True;0,65299987793
PSK1994w;experiment;2017-05-04-18-33-18;6,0;5,0;-100;3,0;2,0;1,0;0,0;column;0,0;True;False;True;1,64800000191;True;0,569000005722
PSK1994w;experiment;2017-05-04-18-33-18;6,0;6,0;-100;1,0;0,0;2,0;3,0;column;0,0;False;True;False;2,11500000954;True;1,39800000191
PSK1994w;experiment;2017-05-04-18-33-18;6,0;7,0;-100;1,0;2,0;3,0;0,0;row;0,0;True;True;True;1,4509999752;True;0,763999938965
PSK1994w;experiment;2017-05-04-18-33-18;6,0;8,0;-100;3,0;2,0;0,0;1,0;column;0,0;False;True;False;1,88400006294;True;1,49599981308
PSK1994w;experiment;2017-05-04-18-33-18;6,0;9,0;-100;2,0;3,0;0,0;1,0;row;0,0;True;True;True;1,34999990463;True;0,596999883652
PSK1994w;experiment;2017-05-04-18-33-18;6,0;10,0;-100;2,0;3,0;0,0;1,0;column;0,0;True;True;True;1,5490000248;True;1,09700012207
PSK1994w;experiment;2017-05-04-18-33-18;6,0;11,0;-100;0,0;2,0;1,0;3,0;row;1,0;True;False;True;1,34899997711;True;1,43099999428
PSK1994w;experiment;2017-05-04-18-33-18;6,0;12,0;-100;0,0;1,0;2,0;3,0;row;1,0;True;True;True;1,64999985695;True;0,52999997139
PSK1994w;experiment;2017-05-04-18-33-18;6,0;13,0;-100;1,0;3,0;0,0;2,0;column;1,0;True;True;True;1,58199977875;True;0,988999843597
PSK1994w;experiment;2017-05-04-18-33-18;6,0;14,0;-100;2,0;1,0;0,0;3,0;row;1,0;False;True;False;2,35100007057;True;0,998000144958
PSK1994w;experiment;2017-05-04-18-33-18;6,0;15,0;-100;0,0;3,0;2,0;1,0;row;0,0;False;False;False;1,04999995232;True;1,13100004196
PSK1994w;experiment;2017-05-04-18-33-18;6,0;16,0;-100;1,0;0,0;3,0;2,0;column;0,0;False;True;False;1,18300008774;True;0,996999979019
PSK1994w;experiment;2017-05-04-18-33-18;6,0;17,0;-100;1,0;2,0;0,0;3,0;row;0,0;False;True;False;1,58299994469;True;1,22099995613
PSK1994w;experiment;2017-05-04-18-33-18;6,0;18,0;-100;3,0;0,0;2,0;1,0;column;0,0;False;True;False;1,41700005531;True;1,39599990845
PSK1994w;experiment;2017-05-04-18-33-18;6,0;19,0;-100;1,0;0,0;3,0;2,0;row;0,0;False;False;False;3,01600003242;True;1,12800002098
PSK1994w;experiment;2017-05-04-18-33-18;6,0;20,0;-100;1,0;0,0;2,0;3,0;row;0,0;True;True;True;1,25;True;0,756999969482
PSK1994w;experiment;2017-05-04-18-33-18;6,0;21,0;-100;1,0;3,0;0,0;2,0;column;0,0;True;True;True;1,88300013542;True;1,36599993706
PSK1994w;experiment;2017-05-04-18-33-18;6,0;22,0;-100;1,0;2,0;0,0;3,0;row;1,0;True;True;True;1,48399996758;True;0,804000139236
PSK1994w;experiment;2017-05-04-18-33-18;6,0;23,0;-100;3,0;0,0;2,0;1,0;row;0,0;False;True;False;1,44999980927;True;1,03099989891
PSK1994w;experiment;2017-05-04-18-33-18;6,0;24,0;-100;3,0;1,0;0,0;2,0;column;1,0;True;False;False;2,25;False;0,764000177383
PSK1994w;experiment;2017-05-04-18-33-18;6,0;25,0;-100;1,0;3,0;2,0;0,0;column;1,0;False;False;False;1,45000004768;True;1,43300008774
PSK1994w;experiment;2017-05-04-18-33-18;6,0;26,0;-100;3,0;2,0;1,0;0,0;row;0,0;True;False;True;1,81599998474;True;0,866999864578
PSK1994w;experiment;2017-05-04-18-33-18;6,0;27,0;-100;0,0;1,0;3,0;2,0;column;0,0;False;True;False;1,48399996758;True;1,06699991226
PSK1994w;experiment;2017-05-04-18-33-18;6,0;28,0;-100;2,0;1,0;3,0;0,0;column;0,0;False;False;False;1,34799981117;True;1,43499994278
PSK1994w;experiment;2017-05-04-18-33-18;6,0;29,0;-100;3,0;0,0;1,0;2,0;column;0,0;False;True;False;1,31700015068;True;0,629999876022
PSK1994w;experiment;2017-05-04-18-33-18;6,0;30,0;-100;2,0;3,0;0,0;1,0;column;1,0;True;True;True;2,01600003242;True;0,700000047684
PSK1994w;experiment;2017-05-04-18-33-18;6,0;31,0;-100;2,0;3,0;1,0;0,0;row;1,0;False;True;False;2,08299994469;True;1,26300001144
PSK1994w;experiment;2017-05-04-18-33-18;6,0;32,0;-100;2,0;1,0;0,0;3,0;row;0,0;False;False;False;1,71799993515;True;1,3639998436
PSK1994w;experiment;2017-05-04-18-33-18;6,0;33,0;-100;3,0;2,0;1,0;0,0;column;1,0;False;False;False;1,69199991226;True;0,704999923706
PSK1994w;experiment;2017-05-04-18-33-18;6,0;34,0;-100;1,0;2,0;0,0;3,0;column;1,0;True;False;True;5,91600012779;True;0,790999889374
PSK1994w;experiment;2017-05-04-18-33-18;6,0;35,0;-100;3,0;2,0;0,0;1,0;row;0,0;False;False;False;2,9509999752;True;0,829999923706
PSK1994w;experiment;2017-05-04-18-33-18;6,0;36,0;-100;2,0;3,0;1,0;0,0;column;0,0;True;False;True;1,882999897;True;1,39700007439
PSK1994w;experiment;2017-05-04-18-33-18;6,0;37,0;-100;3,0;1,0;0,0;2,0;row;1,0;True;True;True;1,41699981689;True;0,763000011444
PSK1994w;experiment;2017-05-04-18-33-18;6,0;38,0;-100;3,0;0,0;2,0;1,0;row;0,0;True;False;True;1,55100011826;True;1,36500000954
PSK1994w;experiment;2017-05-04-18-33-18;6,0;39,0;-100;2,0;1,0;0,0;3,0;column;1,0;False;True;False;2,01699995995;True;0,648000001907
PSK1994w;experiment;2017-05-04-18-33-18;6,0;40,0;-100;1,0;3,0;0,0;2,0;column;0,0;False;True;False;1,28000020981;True;0,572000026703
PSK1994w;experiment;2017-05-04-18-33-18;6,0;41,0;-100;3,0;0,0;1,0;2,0;row;0,0;False;False;False;2,45200014114;True;0,759000062943
PSK1994w;experiment;2017-05-04-18-33-18;6,0;42,0;-100;0,0;1,0;3,0;2,0;row;0,0;False;True;False;1,18400001526;True;0,797000169754
PSK1994w;experiment;2017-05-04-18-33-18;6,0;43,0;-100;3,0;2,0;0,0;1,0;row;1,0;True;True;True;1,54799985886;True;0,828999996185
PSK1994w;experiment;2017-05-04-18-33-18;6,0;44,0;-100;0,0;3,0;2,0;1,0;row;1,0;False;True;False;3,382999897;True;0,833000183105
PSK1994w;experiment;2017-05-04-18-33-18;6,0;45,0;-100;0,0;1,0;2,0;3,0;column;0,0;True;True;True;2,75;True;1,29699993134
PSK1994w;experiment;2017-05-04-18-33-18;6,0;46,0;-100;1,0;0,0;3,0;2,0;column;1,0;False;False;False;2,08200001717;True;1,03800010681
PSK1994w;experiment;2017-05-04-18-33-18;6,0;47,0;-100;2,0;0,0;3,0;1,0;column;0,0;True;False;True;1,84999990463;True;1,13100004196
PSK1994w;experiment;2017-05-04-18-33-18;6,0;48,0;-100;2,0;3,0;1,0;0,0;row;1,0;True;False;True;1,38400006294;True;0,563999891281
PSK1994w;experiment;2017-05-04-18-33-18;7,0;1,0;-100;3,0;1,0;2,0;0,0;column;0,0;True;True;True;2,08299994469;True;1,29499983788
PSK1994w;experiment;2017-05-04-18-33-18;7,0;2,0;-100;2,0;3,0;0,0;1,0;row;1,0;True;True;True;1,617000103;True;1,19500017166
PSK1994w;experiment;2017-05-04-18-33-18;7,0;3,0;-100;0,0;1,0;2,0;3,0;row;0,0;True;True;True;1,41600012779;True;1,35800004005
PSK1994w;experiment;2017-05-04-18-33-18;7,0;4,0;-100;2,0;1,0;0,0;3,0;column;1,0;True;False;True;1,48300004005;True;0,634000062943
PSK1994w;experiment;2017-05-04-18-33-18;7,0;5,0;-100;3,0;1,0;0,0;2,0;column;1,0;False;True;False;2,3140001297;True;0,633000135422
PSK1994w;experiment;2017-05-04-18-33-18;7,0;6,0;-100;0,0;3,0;1,0;2,0;row;1,0;False;False;False;1,91599988937;True;1,43000006676
PSK1994w;experiment;2017-05-04-18-33-18;7,0;7,0;-100;2,0;0,0;1,0;3,0;column;0,0;True;False;True;3,5490000248;True;0,96799993515
PSK1994w;experiment;2017-05-04-18-33-18;7,0;8,0;-100;0,0;3,0;1,0;2,0;column;1,0;False;False;False;1,48099994659;True;1,26499986649
PSK1994w;experiment;2017-05-04-18-33-18;7,0;9,0;-100;0,0;2,0;3,0;1,0;column;1,0;True;False;True;2,25;True;1,46500015259
PSK1994w;experiment;2017-05-04-18-33-18;7,0;10,0;-100;2,0;1,0;0,0;3,0;row;0,0;True;True;True;1,94899988174;True;1,07299995422
PSK1994w;experiment;2017-05-04-18-33-18;7,0;11,0;-100;0,0;2,0;1,0;3,0;row;1,0;False;False;False;2,48199987411;True;1,39699983597
PSK1994w;experiment;2017-05-04-18-33-18;7,0;12,0;-100;1,0;0,0;3,0;2,0;row;0,0;True;False;True;1,68300008774;True;0,763000011444
PSK1994w;experiment;2017-05-04-18-33-18;7,0;13,0;-100;3,0;1,0;2,0;0,0;row;1,0;False;True;False;1,28299999237;True;1,0649998188
PSK1994w;experiment;2017-05-04-18-33-18;7,0;14,0;-100;1,0;0,0;3,0;2,0;column;0,0;True;False;True;2,04999995232;True;1,23199987411
PSK1994w;experiment;2017-05-04-18-33-18;7,0;15,0;-100;1,0;0,0;2,0;3,0;row;1,0;True;False;True;1,85000014305;True;0,739000082016
PSK1994w;experiment;2017-05-04-18-33-18;7,0;16,0;-100;3,0;0,0;1,0;2,0;column;0,0;True;True;True;1,45000004768;True;0,895999908447
PSK1994w;experiment;2017-05-04-18-33-18;7,0;17,0;-100;0,0;3,0;1,0;2,0;column;0,0;False;False;False;1,58300018311;True;0,866999864578
PSK1994w;experiment;2017-05-04-18-33-18;7,0;18,0;-100;3,0;1,0;0,0;2,0;row;1,0;False;True;False;1,65000009537;True;1,4240000248
PSK1994w;experiment;2017-05-04-18-33-18;7,0;19,0;-100;2,0;1,0;0,0;3,0;column;0,0;False;False;False;1,31699991226;True;0,52999997139
PSK1994w;experiment;2017-05-04-18-33-18;7,0;20,0;-100;2,0;0,0;1,0;3,0;row;0,0;True;True;True;2,25;True;1,36299991608
PSK1994w;experiment;2017-05-04-18-33-18;7,0;21,0;-100;2,0;3,0;1,0;0,0;row;0,0;True;True;True;1,81599998474;True;1,05500006676
PSK1994w;experiment;2017-05-04-18-33-18;7,0;22,0;-100;0,0;3,0;1,0;2,0;row;1,0;True;True;True;1,5490000248;True;1,46700000763
PSK1994w;experiment;2017-05-04-18-33-18;7,0;23,0;-100;3,0;2,0;0,0;1,0;row;1,0;False;True;False;1,84999990463;True;1,1289999485
PSK1994w;experiment;2017-05-04-18-33-18;7,0;24,0;-100;3,0;2,0;0,0;1,0;column;0,0;True;False;True;1,18400001526;True;0,557000160217
PSK1994w;experiment;2017-05-04-18-33-18;7,0;25,0;-100;2,0;1,0;0,0;3,0;column;0,0;True;False;True;2,117000103;True;0,588000059128
PSK1994w;experiment;2017-05-04-18-33-18;7,0;26,0;-100;3,0;2,0;1,0;0,0;row;0,0;False;True;False;1,58400011063;True;0,762000083923
PSK1994w;experiment;2017-05-04-18-33-18;7,0;27,0;-100;0,0;3,0;2,0;1,0;row;0,0;True;True;True;1,41700005531;True;0,697999954224
PSK1994w;experiment;2017-05-04-18-33-18;7,0;28,0;-100;3,0;1,0;2,0;0,0;row;0,0;False;True;False;1,35000014305;True;0,799000024796
PSK1994w;experiment;2017-05-04-18-33-18;7,0;29,0;-100;0,0;2,0;3,0;1,0;column;0,0;True;True;True;2,08299994469;True;0,621999979019
PSK1994w;experiment;2017-05-04-18-33-18;7,0;30,0;-100;2,0;3,0;0,0;1,0;column;1,0;False;False;False;2,24900007248;True;0,530999898911
PSK1994w;experiment;2017-05-04-18-33-18;7,0;31,0;-100;1,0;3,0;0,0;2,0;row;0,0;True;False;True;1,41600012779;True;0,923000097275
PSK1994w;experiment;2017-05-04-18-33-18;7,0;32,0;-100;0,0;2,0;1,0;3,0;column;1,0;False;False;False;2,75;True;1,36100006104
PSK1994w;experiment;2017-05-04-18-33-18;7,0;33,0;-100;2,0;0,0;1,0;3,0;column;1,0;True;False;True;1,5150001049;True;0,756999969482
PSK1994w;experiment;2017-05-04-18-33-18;7,0;34,0;-100;0,0;2,0;1,0;3,0;row;0,0;False;False;False;3,0490000248;True;1,13000011444
PSK1994w;experiment;2017-05-04-18-33-18;7,0;35,0;-100;1,0;0,0;2,0;3,0;column;1,0;False;True;False;3,38400006294;True;0,699000120163
PSK1994w;experiment;2017-05-04-18-33-18;7,0;36,0;-100;1,0;2,0;0,0;3,0;column;0,0;False;True;False;2,21700000763;True;1,20199990273
PSK1994w;experiment;2017-05-04-18-33-18;7,0;37,0;-100;3,0;1,0;2,0;0,0;row;1,0;True;True;True;1,65000009537;True;0,796999931335
PSK1994w;experiment;2017-05-04-18-33-18;7,0;38,0;-100;3,0;0,0;1,0;2,0;row;1,0;False;False;False;1,61599993706;True;0,733000040054
PSK1994w;experiment;2017-05-04-18-33-18;7,0;39,0;-100;2,0;1,0;3,0;0,0;row;0,0;True;True;True;1,08400011063;True;1,43499994278
PSK1994w;experiment;2017-05-04-18-33-18;7,0;40,0;-100;3,0;1,0;0,0;2,0;row;0,0;False;True;False;2,3149998188;True;0,961999893188
PSK1994w;experiment;2017-05-04-18-33-18;7,0;41,0;-100;2,0;3,0;1,0;0,0;row;0,0;False;True;False;1,51799988747;True;1,39800000191
PSK1994w;experiment;2017-05-04-18-33-18;7,0;42,0;-100;0,0;3,0;1,0;2,0;row;0,0;True;True;True;1,58200001717;True;1,49800014496
PSK1994w;experiment;2017-05-04-18-33-18;7,0;43,0;-100;0,0;2,0;3,0;1,0;row;1,0;True;True;True;2,1819999218;True;1,46500015259
PSK1994w;experiment;2017-05-04-18-33-18;7,0;44,0;-100;3,0;1,0;2,0;0,0;column;1,0;True;True;True;1,88300013542;True;0,930999994278
PSK1994w;experiment;2017-05-04-18-33-18;7,0;45,0;-100;0,0;2,0;1,0;3,0;row;0,0;True;False;True;2,11800003052;True;0,830999851227
PSK1994w;experiment;2017-05-04-18-33-18;7,0;46,0;-100;2,0;0,0;3,0;1,0;column;0,0;False;True;True;2,68300008774;False;0,992000102997
PSK1994w;experiment;2017-05-04-18-33-18;7,0;47,0;-100;1,0;2,0;3,0;0,0;row;1,0;True;True;True;8,98300004005;True;0,996999979019
PSK1994w;experiment;2017-05-04-18-33-18;7,0;48,0;-100;1,0;3,0;0,0;2,0;row;1,0;False;True;False;1,58400011063;True;1,0
PSK1994w;experiment;2017-05-04-18-33-18;8,0;1,0;1000;1,0;0,0;2,0;3,0;column;1,0;True;False;True;1,56599998474;True;0,959999799728
PSK1994w;experiment;2017-05-04-18-33-18;8,0;2,0;1000;0,0;1,0;3,0;2,0;column;0,0;True;True;True;1,5;True;1,33500003815
PSK1994w;experiment;2017-05-04-18-33-18;8,0;3,0;1000;2,0;3,0;1,0;0,0;column;0,0;False;True;False;1,93499994278;True;1,03299999237
PSK1994w;experiment;2017-05-04-18-33-18;8,0;4,0;1000;2,0;0,0;3,0;1,0;row;0,0;False;False;False;1,33299994469;True;1,43700003624
PSK1994w;experiment;2017-05-04-18-33-18;8,0;5,0;1000;2,0;0,0;3,0;1,0;row;1,0;True;True;True;1,23300004005;True;1,08800005913
PSK1994w;experiment;2017-05-04-18-33-18;8,0;6,0;1000;0,0;3,0;2,0;1,0;column;1,0;False;True;False;1,9319999218;True;1,36299991608
PSK1994w;experiment;2017-05-04-18-33-18;8,0;7,0;1000;1,0;0,0;3,0;2,0;column;0,0;True;False;True;1,33299994469;True;0,928999900818
PSK1994w;experiment;2017-05-04-18-33-18;8,0;8,0;1000;0,0;3,0;2,0;1,0;row;0,0;True;False;True;1,43300008774;True;1,39499998093
PSK1994w;experiment;2017-05-04-18-33-18;8,0;9,0;1000;1,0;2,0;0,0;3,0;column;0,0;True;False;True;1,96700000763;True;1,36599993706
PSK1994w;experiment;2017-05-04-18-33-18;8,0;10,0;1000;3,0;0,0;2,0;1,0;row;0,0;False;False;False;1,56699991226;True;1,39899992943
PSK1994w;experiment;2017-05-04-18-33-18;8,0;11,0;1000;1,0;0,0;2,0;3,0;row;1,0;True;True;True;1,66700005531;True;1,1970000267
PSK1994w;experiment;2017-05-04-18-33-18;8,0;12,0;1000;0,0;2,0;1,0;3,0;column;0,0;False;False;False;3,39999985695;True;0,638000011444
PSK1994w;experiment;2017-05-04-18-33-18;8,0;13,0;1000;0,0;3,0;1,0;2,0;column;1,0;False;True;False;3,33200001717;True;1,2650001049
PSK1994w;experiment;2017-05-04-18-33-18;8,0;14,0;1000;3,0;2,0;1,0;0,0;row;0,0;True;True;True;1,03400015831;True;0,796999931335
PSK1994w;experiment;2017-05-04-18-33-18;8,0;15,0;1000;2,0;3,0;0,0;1,0;column;1,0;False;False;False;3,53399991989;True;1,22899985313
PSK1994w;experiment;2017-05-04-18-33-18;8,0;16,0;1000;3,0;1,0;2,0;0,0;column;1,0;False;False;False;1,46700000763;True;0,638000011444
PSK1994w;experiment;2017-05-04-18-33-18;8,0;17,0;1000;2,0;3,0;0,0;1,0;row;0,0;False;True;False;1,86800003052;True;0,828999996185
PSK1994w;experiment;2017-05-04-18-33-18;8,0;18,0;1000;2,0;3,0;0,0;1,0;row;0,0;True;False;True;2,367000103;True;1,19400000572
PSK1994w;experiment;2017-05-04-18-33-18;8,0;19,0;1000;2,0;0,0;1,0;3,0;row;0,0;False;True;False;0,865999937057;True;1,02900004387
PSK1994w;experiment;2017-05-04-18-33-18;8,0;20,0;1000;0,0;3,0;1,0;2,0;row;0,0;False;False;False;1,53299999237;True;1,33299994469
PSK1994w;experiment;2017-05-04-18-33-18;8,0;21,0;1000;3,0;0,0;2,0;1,0;row;1,0;False;False;True;3,46700000763;False;1,29799985886
PSK1994w;experiment;2017-05-04-18-33-18;8,0;22,0;1000;1,0;2,0;0,0;3,0;column;0,0;False;True;False;1,53299999237;True;1,12800002098
PSK1994w;experiment;2017-05-04-18-33-18;8,0;23,0;1000;2,0;0,0;1,0;3,0;column;1,0;False;True;False;3,00099992752;True;1,43099999428
PSK1994w;experiment;2017-05-04-18-33-18;8,0;24,0;1000;2,0;0,0;1,0;3,0;column;1,0;True;False;True;4,30000019073;True;0,929000139236
PSK1994w;experiment;2017-05-04-18-33-18;8,0;25,0;1000;2,0;0,0;1,0;3,0;column;0,0;False;False;False;2,66400003433;True;0,803999900818
PSK1994w;experiment;2017-05-04-18-33-18;8,0;26,0;1000;0,0;2,0;3,0;1,0;column;1,0;True;False;True;2,5680000782;True;0,833999872208
PSK1994w;experiment;2017-05-04-18-33-18;8,0;27,0;1000;0,0;1,0;2,0;3,0;row;0,0;False;False;False;1,56599998474;True;1,29700016975
PSK1994w;experiment;2017-05-04-18-33-18;8,0;28,0;1000;2,0;0,0;3,0;1,0;column;0,0;True;True;False;5,0;False;0,72200012207
PSK1994w;experiment;2017-05-04-18-33-18;8,0;29,0;1000;2,0;3,0;1,0;0,0;column;1,0;True;False;True;3,06599998474;True;1,16499996185
PSK1994w;experiment;2017-05-04-18-33-18;8,0;30,0;1000;0,0;3,0;2,0;1,0;column;0,0;True;True;True;1,53400015831;True;0,634999990463
PSK1994w;experiment;2017-05-04-18-33-18;8,0;31,0;1000;0,0;1,0;3,0;2,0;row;1,0;True;False;True;1,79999995232;True;0,565999984741
PSK1994w;experiment;2017-05-04-18-33-18;8,0;32,0;1000;0,0;3,0;2,0;1,0;column;0,0;False;False;False;1,79999995232;True;0,903000116348
PSK1994w;experiment;2017-05-04-18-33-18;8,0;33,0;1000;1,0;3,0;2,0;0,0;column;1,0;True;False;True;1,86599993706;True;0,56299996376
PSK1994w;experiment;2017-05-04-18-33-18;8,0;34,0;1000;3,0;1,0;2,0;0,0;column;1,0;True;False;False;7,30099987984;False;1,29600000381
PSK1994w;experiment;2017-05-04-18-33-18;8,0;35,0;1000;0,0;1,0;3,0;2,0;column;1,0;True;False;True;2,83399987221;True;0,792999982834
PSK1994w;experiment;2017-05-04-18-33-18;8,0;36,0;1000;1,0;2,0;0,0;3,0;row;0,0;True;False;True;1,23300004005;True;1,46399998665
PSK1994w;experiment;2017-05-04-18-33-18;8,0;37,0;1000;2,0;1,0;0,0;3,0;row;0,0;False;False;False;1,46799993515;True;0,996000051498
PSK1994w;experiment;2017-05-04-18-33-18;8,0;38,0;1000;0,0;3,0;2,0;1,0;row;0,0;False;True;False;1,76700019836;True;0,799000024796
PSK1994w;experiment;2017-05-04-18-33-18;8,0;39,0;1000;1,0;3,0;0,0;2,0;row;1,0;True;True;True;1,43400001526;True;1,23099994659
PSK1994w;experiment;2017-05-04-18-33-18;8,0;40,0;1000;0,0;1,0;2,0;3,0;column;1,0;False;False;False;5,13100004196;True;0,730999946594
PSK1994w;experiment;2017-05-04-18-33-18;8,0;41,0;1000;0,0;3,0;1,0;2,0;row;1,0;False;False;True;1,86599993706;False;0,994999885559
PSK1994w;experiment;2017-05-04-18-33-18;8,0;42,0;1000;3,0;2,0;0,0;1,0;column;0,0;False;False;False;2,43099999428;True;0,871000051498
PSK1994w;experiment;2017-05-04-18-33-18;8,0;43,0;1000;2,0;1,0;3,0;0,0;column;1,0;True;False;False;8,5;False;0,573000192642
PSK1994w;experiment;2017-05-04-18-33-18;8,0;44,0;1000;3,0;0,0;1,0;2,0;row;1,0;True;True;True;1,63400006294;True;1,3630001545
PSK1994w;experiment;2017-05-04-18-33-18;8,0;45,0;1000;2,0;3,0;0,0;1,0;row;1,0;False;True;False;3,20000004768;True;0,636000156403
PSK1994w;experiment;2017-05-04-18-33-18;8,0;46,0;1000;2,0;1,0;3,0;0,0;row;0,0;True;False;True;2,56699991226;True;1,32899999619
PSK1994w;experiment;2017-05-04-18-33-18;8,0;47,0;1000;1,0;0,0;3,0;2,0;column;1,0;False;True;True;2,03299999237;False;1,39500021935
PSK1994w;experiment;2017-05-04-18-33-18;8,0;48,0;1000;2,0;1,0;0,0;3,0;row;1,0;False;False;False;3,5;True;0,590000152588
PSK1994w;experiment;2017-05-04-18-33-18;9,0;1,0;100;0,0;3,0;2,0;1,0;row;0,0;True;True;True;1,09999990463;True;1,50200009346
PSK1994w;experiment;2017-05-04-18-33-18;9,0;2,0;100;0,0;1,0;2,0;3,0;row;0,0;True;True;True;2,09800004959;True;0,700000047684
PSK1994w;experiment;2017-05-04-18-33-18;9,0;3,0;100;1,0;3,0;2,0;0,0;row;1,0;False;False;False;1,63300013542;True;0,696000099182
PSK1994w;experiment;2017-05-04-18-33-18;9,0;4,0;100;1,0;3,0;0,0;2,0;column;0,0;True;False;True;2,5;True;0,597999811172
PSK1994w;experiment;2017-05-04-18-33-18;9,0;5,0;100;1,0;2,0;0,0;3,0;column;0,0;True;False;True;2,66799998283;True;1,02300000191
PSK1994w;experiment;2017-05-04-18-33-18;9,0;6,0;100;2,0;0,0;1,0;3,0;row;0,0;True;False;True;1,46700000763;True;1,3029999733
PSK1994w;experiment;2017-05-04-18-33-18;9,0;7,0;100;2,0;0,0;3,0;1,0;row;1,0;True;True;True;1,53300023079;True;0,556999921799
PSK1994w;experiment;2017-05-04-18-33-18;9,0;8,0;100;3,0;0,0;2,0;1,0;column;1,0;False;True;False;1,46700000763;True;0,797999858856
PSK1994w;experiment;2017-05-04-18-33-18;9,0;9,0;100;1,0;3,0;2,0;0,0;column;1,0;False;True;False;3,26600003242;True;0,631999969482
PSK1994w;experiment;2017-05-04-18-33-18;9,0;10,0;100;3,0;0,0;1,0;2,0;row;0,0;True;True;True;1,59999990463;True;1,39899992943
PSK1994w;experiment;2017-05-04-18-33-18;9,0;11,0;100;0,0;2,0;3,0;1,0;column;0,0;True;False;True;1,40000009537;True;0,530999898911
PSK1994w;experiment;2017-05-04-18-33-18;9,0;12,0;100;3,0;2,0;0,0;1,0;column;0,0;True;False;True;1,43400001526;True;0,694999933243
PSK1994w;experiment;2017-05-04-18-33-18;9,0;13,0;100;3,0;2,0;1,0;0,0;column;0,0;True;True;True;2,06599998474;True;1,06699991226
PSK1994w;experiment;2017-05-04-18-33-18;9,0;14,0;100;3,0;0,0;1,0;2,0;column;1,0;True;False;True;2,7009999752;True;1,33599996567
PSK1994w;experiment;2017-05-04-18-33-18;9,0;15,0;100;1,0;2,0;0,0;3,0;row;1,0;False;True;False;2,0;True;1,40299987793
PSK1994w;experiment;2017-05-04-18-33-18;9,0;16,0;100;2,0;3,0;0,0;1,0;column;0,0;True;False;True;1,10000014305;True;1,16100001335
PSK1994w;experiment;2017-05-04-18-33-18;9,0;17,0;100;3,0;2,0;1,0;0,0;column;1,0;False;False;False;1,09999990463;True;1,26700019836
PSK1994w;experiment;2017-05-04-18-33-18;9,0;18,0;100;2,0;1,0;0,0;3,0;column;0,0;True;False;True;1,33499979973;True;1,1970000267
PSK1994w;experiment;2017-05-04-18-33-18;9,0;19,0;100;2,0;1,0;3,0;0,0;row;0,0;True;False;True;1,13399982452;True;1,19900012016
PSK1994w;experiment;2017-05-04-18-33-18;9,0;20,0;100;2,0;3,0;1,0;0,0;column;0,0;False;True;False;2,76699995995;True;1,43400001526
PSK1994w;experiment;2017-05-04-18-33-18;9,0;21,0;100;0,0;2,0;3,0;1,0;row;0,0;True;False;True;1,632999897;True;0,796999931335
PSK1994w;experiment;2017-05-04-18-33-18;9,0;22,0;100;2,0;1,0;0,0;3,0;row;0,0;False;False;False;1,73399996758;True;1,33000016212
PSK1994w;experiment;2017-05-04-18-33-18;9,0;23,0;100;0,0;1,0;3,0;2,0;column;1,0;True;True;True;2,5;True;0,864000082016
PSK1994w;experiment;2017-05-04-18-33-18;9,0;24,0;100;3,0;2,0;0,0;1,0;column;1,0;False;False;False;2,76700019836;True;1,35500001907
PSK1994w;experiment;2017-05-04-18-33-18;9,0;25,0;100;1,0;2,0;0,0;3,0;row;0,0;False;False;False;2,367000103;True;1,39599990845
PSK1994w;experiment;2017-05-04-18-33-18;9,0;26,0;100;3,0;1,0;0,0;2,0;row;0,0;False;False;False;2,23300004005;True;1,42899990082
PSK1994w;experiment;2017-05-04-18-33-18;9,0;27,0;100;3,0;2,0;0,0;1,0;row;0,0;False;True;False;3,06700015068;True;1,00099992752
PSK1994w;experiment;2017-05-04-18-33-18;9,0;28,0;100;0,0;1,0;2,0;3,0;column;1,0;True;False;True;5,46700000763;True;1,32500004768
PSK1994w;experiment;2017-05-04-18-33-18;9,0;29,0;100;2,0;0,0;3,0;1,0;row;0,0;False;False;False;2,7990000248;True;1,46200013161
PSK1994w;experiment;2017-05-04-18-33-18;9,0;30,0;100;2,0;1,0;3,0;0,0;row;1,0;False;True;False;2,26600003242;True;0,97200012207
PSK1994w;experiment;2017-05-04-18-33-18;9,0;31,0;100;0,0;2,0;1,0;3,0;row;1,0;False;True;False;1,86500000954;True;1,16899991035
PSK1994w;experiment;2017-05-04-18-33-18;9,0;32,0;100;1,0;0,0;3,0;2,0;row;1,0;False;False;False;1,23300004005;True;1,08799982071
PSK1994w;experiment;2017-05-04-18-33-18;9,0;33,0;100;3,0;0,0;2,0;1,0;column;1,0;True;True;True;2,43699979782;True;1,29800009727
PSK1994w;experiment;2017-05-04-18-33-18;9,0;34,0;100;0,0;3,0;1,0;2,0;row;1,0;False;False;False;1,19899988174;True;0,631000041962
PSK1994w;experiment;2017-05-04-18-33-18;9,0;35,0;100;0,0;1,0;2,0;3,0;row;0,0;False;True;False;2,66600012779;True;0,634999990463
PSK1994w;experiment;2017-05-04-18-33-18;9,0;36,0;100;3,0;0,0;1,0;2,0;row;1,0;False;True;False;2,53299999237;True;0,864000082016
PSK1994w;experiment;2017-05-04-18-33-18;9,0;37,0;100;2,0;3,0;1,0;0,0;column;1,0;True;True;True;1,93400001526;True;1,19999980927
PSK1994w;experiment;2017-05-04-18-33-18;9,0;38,0;100;3,0;0,0;1,0;2,0;row;1,0;True;False;True;1,59800004959;True;1,44199991226
PSK1994w;experiment;2017-05-04-18-33-18;9,0;39,0;100;2,0;1,0;3,0;0,0;column;0,0;True;False;True;1,36600017548;True;1,0
PSK1994w;experiment;2017-05-04-18-33-18;9,0;40,0;100;2,0;3,0;1,0;0,0;row;1,0;False;False;False;2,53299999237;True;1,52900004387
PSK1994w;experiment;2017-05-04-18-33-18;9,0;41,0;100;1,0;3,0;0,0;2,0;row;1,0;False;True;False;1,79999995232;True;0,727999925613
PSK1994w;experiment;2017-05-04-18-33-18;9,0;42,0;100;3,0;2,0;0,0;1,0;column;0,0;False;True;True;7,16700005531;False;1,03200006485
PSK1994w;experiment;2017-05-04-18-33-18;9,0;43,0;100;2,0;1,0;0,0;3,0;column;1,0;True;False;True;1,93300008774;True;0,700000047684
PSK1994w;experiment;2017-05-04-18-33-18;9,0;44,0;100;0,0;3,0;2,0;1,0;row;1,0;False;False;False;1,13300013542;True;1,33299994469
PSK1994w;experiment;2017-05-04-18-33-18;9,0;45,0;100;1,0;3,0;2,0;0,0;row;0,0;False;True;False;1,09999990463;True;0,895999908447
PSK1994w;experiment;2017-05-04-18-33-18;9,0;46,0;100;2,0;1,0;0,0;3,0;column;0,0;False;False;False;1,73399996758;True;1,26200008392
PSK1994w;experiment;2017-05-04-18-33-18;9,0;47,0;100;3,0;1,0;2,0;0,0;column;0,0;False;True;False;1,132999897;True;0,700000047684
PSK1994w;experiment;2017-05-04-18-33-18;9,0;48,0;100;0,0;3,0;1,0;2,0;column;1,0;False;False;False;1,73300004005;True;0,530999898911
PSK1994w;experiment;2017-05-04-18-33-18;10,0;1,0;-100;0,0;3,0;1,0;2,0;column;1,0;True;True;True;2,617000103;True;0,865999937057
PSK1994w;experiment;2017-05-04-18-33-18;10,0;2,0;-100;1,0;0,0;2,0;3,0;row;1,0;False;False;False;0,983000040054;True;1,03399991989
PSK1994w;experiment;2017-05-04-18-33-18;10,0;3,0;-100;0,0;1,0;3,0;2,0;column;0,0;True;True;True;2,117000103;True;0,693000078201
PSK1994w;experiment;2017-05-04-18-33-18;10,0;4,0;-100;1,0;2,0;3,0;0,0;column;0,0;False;True;False;1,44800019264;True;0,631000041962
PSK1994w;experiment;2017-05-04-18-33-18;10,0;5,0;-100;0,0;2,0;1,0;3,0;column;1,0;True;True;True;2,58200001717;True;0,603999853134
PSK1994w;experiment;2017-05-04-18-33-18;10,0;6,0;-100;0,0;2,0;1,0;3,0;column;0,0;False;False;False;2,84800004959;True;1,49800014496
PSK1994w;experiment;2017-05-04-18-33-18;10,0;7,0;-100;3,0;1,0;0,0;2,0;row;0,0;True;False;True;1,31700015068;True;1,26600003242
PSK1994w;experiment;2017-05-04-18-33-18;10,0;8,0;-100;2,0;0,0;1,0;3,0;column;0,0;False;True;False;1,48200011253;True;0,625
PSK1994w;experiment;2017-05-04-18-33-18;10,0;9,0;-100;1,0;0,0;2,0;3,0;column;1,0;True;False;True;1,71499991417;True;1,29799985886
PSK1994w;experiment;2017-05-04-18-33-18;10,0;10,0;-100;2,0;1,0;0,0;3,0;row;1,0;True;False;True;1,617000103;True;0,931999921799
PSK1994w;experiment;2017-05-04-18-33-18;10,0;11,0;-100;2,0;0,0;1,0;3,0;row;1,0;True;True;True;0,950999975204;True;0,59700012207
PSK1994w;experiment;2017-05-04-18-33-18;10,0;12,0;-100;0,0;1,0;3,0;2,0;row;1,0;True;True;True;1,21600008011;True;0,533999919891
PSK1994w;experiment;2017-05-04-18-33-18;10,0;13,0;-100;1,0;2,0;3,0;0,0;column;1,0;True;False;False;1,58200001717;False;0,554000139236
PSK1994w;experiment;2017-05-04-18-33-18;10,0;14,0;-100;0,0;3,0;2,0;1,0;row;1,0;True;True;True;1,51699995995;True;0,796999931335
PSK1994w;experiment;2017-05-04-18-33-18;10,0;15,0;-100;3,0;1,0;2,0;0,0;column;1,0;False;True;False;1,08400011063;True;0,967000007629
PSK1994w;experiment;2017-05-04-18-33-18;10,0;16,0;-100;2,0;0,0;3,0;1,0;row;1,0;True;False;True;1,17899990082;True;0,790999889374
PSK1994w;experiment;2017-05-04-18-33-18;10,0;17,0;-100;0,0;1,0;3,0;2,0;column;1,0;True;True;True;1,48000001907;True;1,4960000515
PSK1994w;experiment;2017-05-04-18-33-18;10,0;18,0;-100;1,0;3,0;2,0;0,0;column;1,0;True;False;True;2,08200001717;True;1,29600000381
PSK1994w;experiment;2017-05-04-18-33-18;10,0;19,0;-100;0,0;1,0;3,0;2,0;column;1,0;False;True;False;3,95000004768;True;0,598999977112
PSK1994w;experiment;2017-05-04-18-33-18;10,0;20,0;-100;3,0;2,0;1,0;0,0;column;0,0;False;True;False;1,55099987984;True;0,670000076294
PSK1994w;experiment;2017-05-04-18-33-18;10,0;21,0;-100;2,0;3,0;0,0;1,0;column;0,0;False;True;False;1,44899988174;True;1,40199995041
PSK1994w;experiment;2017-05-04-18-33-18;10,0;22,0;-100;1,0;0,0;3,0;2,0;row;1,0;False;False;False;1,21500015259;True;0,763000011444
PSK1994w;experiment;2017-05-04-18-33-18;10,0;23,0;-100;0,0;2,0;3,0;1,0;column;0,0;False;True;False;1,64999985695;True;1,2380001545
PSK1994w;experiment;2017-05-04-18-33-18;10,0;24,0;-100;2,0;0,0;3,0;1,0;row;0,0;False;False;False;1,01699995995;True;1,20000004768
PSK1994w;experiment;2017-05-04-18-33-18;10,0;25,0;-100;1,0;3,0;0,0;2,0;column;1,0;False;True;False;2,25;True;1,36500000954
PSK1994w;experiment;2017-05-04-18-33-18;10,0;26,0;-100;2,0;0,0;1,0;3,0;row;0,0;False;True;False;1,91699981689;True;1,16099977493
PSK1994w;experiment;2017-05-04-18-33-18;10,0;27,0;-100;3,0;0,0;2,0;1,0;column;1,0;False;False;False;3,48300004005;True;0,628999948502
PSK1994w;experiment;2017-05-04-18-33-18;10,0;28,0;-100;0,0;3,0;2,0;1,0;column;0,0;True;False;True;1,0150001049;True;1,30399990082
PSK1994w;experiment;2017-05-04-18-33-18;10,0;29,0;-100;1,0;0,0;3,0;2,0;row;1,0;True;True;True;1,45000004768;True;0,763999938965
PSK1994w;experiment;2017-05-04-18-33-18;10,0;30,0;-100;3,0;0,0;1,0;2,0;row;0,0;True;False;True;1,04999995232;True;1,09899997711
PSK1994w;experiment;2017-05-04-18-33-18;10,0;31,0;-100;1,0;2,0;3,0;0,0;column;0,0;True;False;True;1,65000009537;True;0,861999988556
PSK1994w;experiment;2017-05-04-18-33-18;10,0;32,0;-100;3,0;0,0;2,0;1,0;row;1,0;False;False;False;1,78200006485;True;1,18800020218
PSK1994w;experiment;2017-05-04-18-33-18;10,0;33,0;-100;1,0;2,0;0,0;3,0;column;1,0;False;False;True;2,51499986649;False;0,728999853134
PSK1994w;experiment;2017-05-04-18-33-18;10,0;34,0;-100;2,0;0,0;3,0;1,0;column;1,0;True;False;True;1,71700000763;True;0,828999996185
PSK1994w;experiment;2017-05-04-18-33-18;10,0;35,0;-100;0,0;1,0;2,0;3,0;column;1,0;True;True;True;1,5150001049;True;1,26400017738
PSK1994w;experiment;2017-05-04-18-33-18;10,0;36,0;-100;3,0;0,0;2,0;1,0;column;0,0;True;True;True;1,68200016022;True;1,25900006294
PSK1994w;experiment;2017-05-04-18-33-18;10,0;37,0;-100;0,0;3,0;1,0;2,0;column;0,0;True;False;True;1,15000009537;True;1,42900013924
PSK1994w;experiment;2017-05-04-18-33-18;10,0;38,0;-100;0,0;2,0;3,0;1,0;row;0,0;False;False;False;2,75;True;0,522000074387
PSK1994w;experiment;2017-05-04-18-33-18;10,0;39,0;-100;1,0;2,0;0,0;3,0;row;0,0;True;False;True;1,08300018311;True;1,26899981499
PSK1994w;experiment;2017-05-04-18-33-18;10,0;40,0;-100;0,0;2,0;3,0;1,0;row;0,0;True;True;True;1,31599998474;True;1,46700000763
PSK1994w;experiment;2017-05-04-18-33-18;10,0;41,0;-100;0,0;1,0;2,0;3,0;row;1,0;False;True;False;1,51699995995;True;0,728999853134
PSK1994w;experiment;2017-05-04-18-33-18;10,0;42,0;-100;1,0;3,0;2,0;0,0;column;0,0;False;True;False;1,51499986649;True;0,765000104904
PSK1994w;experiment;2017-05-04-18-33-18;10,0;43,0;-100;3,0;1,0;2,0;0,0;row;0,0;True;False;True;1,25;True;0,563999891281
PSK1994w;experiment;2017-05-04-18-33-18;10,0;44,0;-100;3,0;2,0;1,0;0,0;row;1,0;False;False;False;1,28400015831;True;0,832000017166
PSK1994w;experiment;2017-05-04-18-33-18;10,0;45,0;-100;1,0;2,0;0,0;3,0;column;0,0;True;False;True;1,35100007057;True;0,966000080109
PSK1994w;experiment;2017-05-04-18-33-18;10,0;46,0;-100;1,0;3,0;0,0;2,0;row;1,0;True;False;False;2,18400001526;False;0,62299990654
PSK1994w;experiment;2017-05-04-18-33-18;10,0;47,0;-100;1,0;2,0;0,0;3,0;row;1,0;False;False;False;5,21800017357;True;0,563999891281
PSK1994w;experiment;2017-05-04-18-33-18;10,0;48,0;-100;3,0;1,0;0,0;2,0;column;0,0;True;True;True;1,51699995995;True;0,963999986649
PSK1994w;experiment;2017-05-04-18-33-18;11,0;1,0;100;2,0;1,0;3,0;0,0;row;0,0;False;False;False;1,29999995232;True;0,960999965668
PSK1994w;experiment;2017-05-04-18-33-18;11,0;2,0;100;0,0;2,0;3,0;1,0;column;1,0;True;True;True;1,63499999046;True;1,22900009155
PSK1994w;experiment;2017-05-04-18-33-18;11,0;3,0;100;2,0;1,0;0,0;3,0;row;0,0;True;True;True;4,53200006485;True;1,36199998856
PSK1994w;experiment;2017-05-04-18-33-18;11,0;4,0;100;0,0;1,0;3,0;2,0;row;0,0;True;False;True;1,13300013542;True;1,49599981308
PSK1994w;experiment;2017-05-04-18-33-18;11,0;5,0;100;1,0;2,0;0,0;3,0;column;1,0;True;True;True;1,10000014305;True;1,4960000515
PSK1994w;experiment;2017-05-04-18-33-18;11,0;6,0;100;2,0;0,0;3,0;1,0;row;1,0;False;False;False;2,632999897;True;0,566999912262
PSK1994w;experiment;2017-05-04-18-33-18;11,0;7,0;100;2,0;3,0;0,0;1,0;column;1,0;False;False;False;6,73199987411;True;1,23099994659
PSK1994w;experiment;2017-05-04-18-33-18;11,0;8,0;100;2,0;1,0;0,0;3,0;row;1,0;True;False;True;1,86800003052;True;0,523999929428
PSK1994w;experiment;2017-05-04-18-33-18;11,0;9,0;100;0,0;1,0;2,0;3,0;column;1,0;False;False;False;2,06699991226;True;0,90399980545
PSK1994w;experiment;2017-05-04-18-33-18;11,0;10,0;100;0,0;3,0;1,0;2,0;column;1,0;True;True;True;2,03400015831;True;0,960999965668
PSK1994w;experiment;2017-05-04-18-33-18;11,0;11,0;100;3,0;2,0;1,0;0,0;row;0,0;False;True;False;1,86699986458;True;0,565999984741
PSK1994w;experiment;2017-05-04-18-33-18;11,0;12,0;100;1,0;3,0;2,0;0,0;column;0,0;True;False;True;1,53299999237;True;1,42900013924
PSK1994w;experiment;2017-05-04-18-33-18;11,0;13,0;100;2,0;3,0;1,0;0,0;row;1,0;True;True;True;1,33399987221;True;0,587999820709
PSK1994w;experiment;2017-05-04-18-33-18;11,0;14,0;100;2,0;3,0;0,0;1,0;column;0,0;False;False;False;1,96700000763;True;0,596999883652
PSK1994w;experiment;2017-05-04-18-33-18;11,0;15,0;100;1,0;0,0;2,0;3,0;column;1,0;True;False;True;5,53299999237;True;1,19799995422
PSK1994w;experiment;2017-05-04-18-33-18;11,0;16,0;100;2,0;0,0;1,0;3,0;column;1,0;True;False;False;2,632999897;False;1,36800003052
PSK1994w;experiment;2017-05-04-18-33-18;11,0;17,0;100;1,0;0,0;2,0;3,0;row;0,0;True;True;True;3,39999985695;True;1,13800001144
PSK1994w;experiment;2017-05-04-18-33-18;11,0;18,0;100;1,0;3,0;2,0;0,0;row;0,0;True;False;True;1,70000004768;True;0,904000043869
PSK1994w;experiment;2017-05-04-18-33-18;11,0;19,0;100;2,0;3,0;1,0;0,0;row;0,0;False;True;False;4,49499988556;True;0,628999948502
PSK1994w;experiment;2017-05-04-18-33-18;11,0;20,0;100;3,0;2,0;0,0;1,0;row;0,0;True;False;True;3,29999995232;True;1,4240000248
PSK1994w;experiment;2017-05-04-18-33-18;11,0;21,0;100;0,0;1,0;2,0;3,0;column;0,0;False;False;False;1,29999995232;True;1,03299999237
PSK1994w;experiment;2017-05-04-18-33-18;11,0;22,0;100;1,0;0,0;2,0;3,0;column;0,0;False;True;False;1,73300004005;True;0,890000104904
PSK1994w;experiment;2017-05-04-18-33-18;11,0;23,0;100;3,0;1,0;0,0;2,0;column;1,0;True;False;True;1,90000009537;True;0,864000082016
PSK1994w;experiment;2017-05-04-18-33-18;11,0;24,0;100;0,0;3,0;2,0;1,0;column;0,0;True;False;True;1,2650001049;True;0,822999954224
PSK1994w;experiment;2017-05-04-18-33-18;11,0;25,0;100;1,0;2,0;3,0;0,0;row;1,0;False;True;False;2,43099999428;True;1,09699988365
PSK1994w;experiment;2017-05-04-18-33-18;11,0;26,0;100;3,0;0,0;2,0;1,0;row;1,0;True;False;True;1,93300008774;True;1,23399996758
PSK1994w;experiment;2017-05-04-18-33-18;11,0;27,0;100;0,0;3,0;1,0;2,0;row;1,0;True;True;True;1,16599988937;True;0,696000099182
PSK1994w;experiment;2017-05-04-18-33-18;11,0;28,0;100;0,0;1,0;3,0;2,0;column;0,0;False;False;False;2,93300008774;True;0,898000001907
PSK1994w;experiment;2017-05-04-18-33-18;11,0;29,0;100;2,0;0,0;3,0;1,0;column;0,0;False;True;False;1,46700000763;True;0,921999931335
PSK1994w;experiment;2017-05-04-18-33-18;11,0;30,0;100;3,0;1,0;2,0;0,0;row;0,0;True;True;True;1,53299999237;True;0,898999929428
PSK1994w;experiment;2017-05-04-18-33-18;11,0;31,0;100;3,0;1,0;0,0;2,0;column;0,0;True;False;True;1,66700005531;True;0,557999849319
PSK1994w;experiment;2017-05-04-18-33-18;11,0;32,0;100;0,0;2,0;1,0;3,0;column;0,0;False;False;False;3,39800000191;True;0,865000009537
PSK1994w;experiment;2017-05-04-18-33-18;11,0;33,0;100;0,0;2,0;3,0;1,0;column;0,0;False;True;False;2,03299999237;True;1,39300012589
PSK1994w;experiment;2017-05-04-18-33-18;11,0;34,0;100;0,0;1,0;3,0;2,0;row;1,0;True;True;False;1,83400011063;False;0,919999837875
PSK1994w;experiment;2017-05-04-18-33-18;11,0;35,0;100;1,0;0,0;3,0;2,0;row;0,0;True;True;True;1,70300006866;True;1,4960000515
PSK1994w;experiment;2017-05-04-18-33-18;11,0;36,0;100;2,0;1,0;0,0;3,0;row;1,0;False;False;False;1,46800017357;True;0,922999858856
PSK1994w;experiment;2017-05-04-18-33-18;11,0;37,0;100;0,0;1,0;2,0;3,0;row;1,0;False;True;False;3,93200016022;True;1,32500004768
PSK1994w;experiment;2017-05-04-18-33-18;11,0;38,0;100;2,0;3,0;0,0;1,0;row;0,0;False;False;False;1,83299994469;True;0,836999893188
PSK1994w;experiment;2017-05-04-18-33-18;11,0;39,0;100;3,0;1,0;2,0;0,0;column;1,0;False;False;False;1,16700005531;True;0,535000085831
PSK1994w;experiment;2017-05-04-18-33-18;11,0;40,0;100;1,0;2,0;3,0;0,0;row;0,0;True;False;True;1,29999995232;True;0,900000095367
PSK1994w;experiment;2017-05-04-18-33-18;11,0;41,0;100;0,0;2,0;3,0;1,0;row;1,0;False;False;False;1,96600008011;True;1,49899983406
PSK1994w;experiment;2017-05-04-18-33-18;11,0;42,0;100;2,0;1,0;3,0;0,0;row;1,0;True;True;True;1,53400015831;True;0,727999925613
PSK1994w;experiment;2017-05-04-18-33-18;11,0;43,0;100;0,0;3,0;2,0;1,0;row;1,0;True;True;True;2,56699991226;True;1,06200003624
PSK1994w;experiment;2017-05-04-18-33-18;11,0;44,0;100;2,0;3,0;0,0;1,0;column;1,0;True;False;False;1,73399996758;False;0,536000013351
PSK1994w;experiment;2017-05-04-18-33-18;11,0;45,0;100;1,0;3,0;2,0;0,0;column;1,0;True;True;True;4,33300018311;True;1,39799976349
PSK1994w;experiment;2017-05-04-18-33-18;11,0;46,0;100;0,0;3,0;1,0;2,0;row;0,0;False;True;False;1,60100007057;True;0,901999950409
PSK1994w;experiment;2017-05-04-18-33-18;11,0;47,0;100;1,0;3,0;0,0;2,0;column;1,0;True;True;True;6,46600008011;True;0,863000154495
PSK1994w;experiment;2017-05-04-18-33-18;11,0;48,0;100;2,0;1,0;3,0;0,0;column;1,0;True;True;True;5,26699995995;True;0,802999973297
PSK1994w;experiment;2017-05-04-18-33-18;12,0;1,0;1000;0,0;1,0;2,0;3,0;row;0,0;True;True;True;1,46599984169;True;1,46500015259
PSK1994w;experiment;2017-05-04-18-33-18;12,0;2,0;1000;1,0;2,0;0,0;3,0;column;1,0;False;True;False;1,96600008011;True;1,06399989128
PSK1994w;experiment;2017-05-04-18-33-18;12,0;3,0;1000;2,0;1,0;0,0;3,0;row;0,0;True;True;True;6,632999897;True;0,738999843597
PSK1994w;experiment;2017-05-04-18-33-18;12,0;4,0;1000;3,0;1,0;2,0;0,0;row;0,0;False;False;False;1,76600003242;True;1,09399986267
PSK1994w;experiment;2017-05-04-18-33-18;12,0;5,0;1000;1,0;3,0;2,0;0,0;row;0,0;True;False;True;2,2349998951;True;0,735999822617
PSK1994w;experiment;2017-05-04-18-33-18;12,0;6,0;1000;2,0;1,0;3,0;0,0;column;1,0;False;False;False;4,49799990654;True;0,737999916077
PSK1994w;experiment;2017-05-04-18-33-18;12,0;7,0;1000;3,0;0,0;1,0;2,0;row;0,0;True;True;True;3,5;True;0,733999967575
PSK1994w;experiment;2017-05-04-18-33-18;12,0;8,0;1000;3,0;0,0;2,0;1,0;column;0,0;False;True;False;2,90000009537;True;1,10199999809
PSK1994w;experiment;2017-05-04-18-33-18;12,0;9,0;1000;1,0;2,0;3,0;0,0;row;0,0;True;True;True;3,43099999428;True;0,870000123978
PSK1994w;experiment;2017-05-04-18-33-18;12,0;10,0;1000;0,0;3,0;1,0;2,0;column;0,0;True;True;True;5,40100002289;True;0,796000003815
PSK1994w;experiment;2017-05-04-18-33-18;12,0;11,0;1000;0,0;2,0;1,0;3,0;row;0,0;False;False;False;1,76600003242;True;1,06699991226
PSK1994w;experiment;2017-05-04-18-33-18;12,0;12,0;1000;1,0;2,0;3,0;0,0;column;1,0;False;False;False;3,26699995995;True;0,529000043869
PSK1994w;experiment;2017-05-04-18-33-18;12,0;13,0;1000;1,0;3,0;2,0;0,0;column;1,0;False;False;False;1,2990000248;True;0,799999952316
PSK1994w;experiment;2017-05-04-18-33-18;12,0;14,0;1000;2,0;1,0;0,0;3,0;column;1,0;False;True;False;3,46700000763;True;0,695999860764
PSK1994w;experiment;2017-05-04-18-33-18;12,0;15,0;1000;1,0;2,0;3,0;0,0;column;0,0;True;False;True;1,40000009537;True;1,49399995804
PSK1994w;experiment;2017-05-04-18-33-18;12,0;16,0;1000;0,0;3,0;1,0;2,0;column;1,0;True;True;True;2,03299999237;True;0,864000082016
PSK1994w;experiment;2017-05-04-18-33-18;12,0;17,0;1000;3,0;1,0;0,0;2,0;column;1,0;False;False;False;2,30100011826;True;0,661999940872
PSK1994w;experiment;2017-05-04-18-33-18;12,0;18,0;1000;2,0;0,0;1,0;3,0;column;0,0;True;False;True;5,39900016785;True;1,33100008965
PSK1994w;experiment;2017-05-04-18-33-18;12,0;19,0;1000;0,0;1,0;2,0;3,0;column;0,0;True;False;True;1,46700000763;True;1,29200005531
PSK1994w;experiment;2017-05-04-18-33-18;12,0;20,0;1000;2,0;3,0;1,0;0,0;row;0,0;True;False;True;1,19899988174;True;1,16499996185
PSK1994w;experiment;2017-05-04-18-33-18;12,0;21,0;1000;1,0;3,0;0,0;2,0;row;0,0;True;True;True;2,59899997711;True;1,02899980545
PSK1994w;experiment;2017-05-04-18-33-18;12,0;22,0;1000;3,0;2,0;0,0;1,0;row;0,0;True;True;True;0,898999929428;True;0,69000005722
PSK1994w;experiment;2017-05-04-18-33-18;12,0;23,0;1000;1,0;3,0;2,0;0,0;column;0,0;True;False;True;4,93400001526;True;0,763000011444
PSK1994w;experiment;2017-05-04-18-33-18;12,0;24,0;1000;2,0;3,0;0,0;1,0;column;0,0;False;True;True;1,23299980164;False;0,736999988556
PSK1994w;experiment;2017-05-04-18-33-18;12,0;25,0;1000;0,0;2,0;1,0;3,0;column;1,0;True;True;True;3,23300004005;True;1,49399995804
PSK1994w;experiment;2017-05-04-18-33-18;12,0;26,0;1000;0,0;1,0;2,0;3,0;row;1,0;False;True;False;2,03299999237;True;1,26399993896
PSK1994w;experiment;2017-05-04-18-33-18;12,0;27,0;1000;1,0;2,0;0,0;3,0;row;1,0;True;False;True;4,69899988174;True;0,688999891281
PSK1994w;experiment;2017-05-04-18-33-18;12,0;28,0;1000;1,0;0,0;3,0;2,0;row;1,0;True;True;True;1,63300013542;True;1,13800001144
PSK1994w;experiment;2017-05-04-18-33-18;12,0;29,0;1000;0,0;2,0;3,0;1,0;column;0,0;False;False;False;2,83400011063;True;1,15600013733
PSK1994w;experiment;2017-05-04-18-33-18;12,0;30,0;1000;3,0;2,0;0,0;1,0;row;1,0;True;False;True;2,39999985695;True;1,19600009918
PSK1994w;experiment;2017-05-04-18-33-18;12,0;31,0;1000;2,0;1,0;3,0;0,0;column;0,0;True;False;True;1,36699986458;True;1,39800000191
PSK1994w;experiment;2017-05-04-18-33-18;12,0;32,0;1000;3,0;2,0;1,0;0,0;column;1,0;True;False;True;2,7009999752;True;0,730999946594
PSK1994w;experiment;2017-05-04-18-33-18;12,0;33,0;1000;2,0;1,0;3,0;0,0;row;1,0;False;True;False;2,03399991989;True;1,40099978447
PSK1994w;experiment;2017-05-04-18-33-18;12,0;34,0;1000;3,0;1,0;0,0;2,0;column;1,0;True;True;True;2,83200001717;True;0,763000011444
PSK1994w;experiment;2017-05-04-18-33-18;12,0;35,0;1000;3,0;0,0;1,0;2,0;row;1,0;False;False;False;2,19999980927;True;0,802999973297
PSK1994w;experiment;2017-05-04-18-33-18;12,0;36,0;1000;3,0;0,0;2,0;1,0;column;0,0;True;False;True;1,26699995995;True;0,699000120163
PSK1994w;experiment;2017-05-04-18-33-18;12,0;37,0;1000;0,0;2,0;3,0;1,0;column;0,0;True;False;True;2,0;True;0,59700012207
PSK1994w;experiment;2017-05-04-18-33-18;12,0;38,0;1000;0,0;2,0;3,0;1,0;row;0,0;False;False;False;3,89899992943;True;0,769000053406
PSK1994w;experiment;2017-05-04-18-33-18;12,0;39,0;1000;0,0;3,0;2,0;1,0;row;1,0;False;True;True;5,2990000248;False;1,06299996376
PSK1994w;experiment;2017-05-04-18-33-18;12,0;40,0;1000;2,0;1,0;0,0;3,0;row;1,0;True;True;True;1,93400001526;True;0,533999919891
PSK1994w;experiment;2017-05-04-18-33-18;12,0;41,0;1000;2,0;1,0;3,0;0,0;column;0,0;False;False;False;2,36600017548;True;1,3029999733
PSK1994w;experiment;2017-05-04-18-33-18;12,0;42,0;1000;0,0;3,0;1,0;2,0;row;1,0;True;False;True;6,17700004578;True;1,19400000572
PSK1994w;experiment;2017-05-04-18-33-18;12,0;43,0;1000;2,0;3,0;1,0;0,0;row;1,0;True;True;True;1,36599993706;True;1,48699998856
PSK1994w;experiment;2017-05-04-18-33-18;12,0;44,0;1000;0,0;1,0;2,0;3,0;column;0,0;False;True;False;2,30000019073;True;1,26200008392
PSK1994w;experiment;2017-05-04-18-33-18;12,0;45,0;1000;3,0;1,0;0,0;2,0;row;1,0;True;True;True;1,63300013542;True;0,56299996376
PSK1994w;experiment;2017-05-04-18-33-18;12,0;46,0;1000;3,0;2,0;1,0;0,0;row;1,0;True;True;True;1,33299994469;True;1,23300004005
PSK1994w;experiment;2017-05-04-18-33-18;12,0;47,0;1000;1,0;2,0;0,0;3,0;row;1,0;False;False;False;3,33199977875;True;1,26099991798
PSK1994w;experiment;2017-05-04-18-33-18;12,0;48,0;1000;3,0;1,0;0,0;2,0;column;0,0;True;False;True;1,16699981689;True;1,1289999485
