Observer;Condition;SessionID;Block;Trial;COA;Color0;Color1;Color2;Color3;Target;Which;Match;FlipComplimentary;Response;RT;Correct;OnsetDelay
RHN1998w;game;2017-03-02-11-25-34;1,0;1,0;-100;0,0;3,0;1,0;2,0;row;0,0;True;True;True;1,18099999428;True;0,698999881744
RHN1998w;game;2017-03-02-11-25-34;1,0;2,0;-100;1,0;0,0;2,0;3,0;column;0,0;True;True;False;1,21299982071;False;0,836999893188
RHN1998w;game;2017-03-02-11-25-34;1,0;3,0;-100;3,0;0,0;1,0;2,0;row;0,0;False;True;False;1,44899988174;True;1,4279999733
RHN1998w;game;2017-03-02-11-25-34;1,0;4,0;-100;0,0;2,0;1,0;3,0;column;1,0;True;True;True;0,950000047684;True;1,36100006104
RHN1998w;game;2017-03-02-11-25-34;1,0;5,0;-100;0,0;2,0;1,0;3,0;column;0,0;False;True;False;1,1819999218;True;0,730999946594
RHN1998w;game;2017-03-02-11-25-34;1,0;6,0;-100;2,0;1,0;3,0;0,0;column;0,0;False;False;True;1,68300008774;False;0,563999891281
RHN1998w;game;2017-03-02-11-25-34;1,0;7,0;-100;1,0;0,0;2,0;3,0;column;1,0;True;True;True;0,884000062943;True;0,669000148773
RHN1998w;game;2017-03-02-11-25-34;1,0;8,0;-100;3,0;1,0;2,0;0,0;column;0,0;True;False;False;0,75;False;0,964000225067
RHN1998w;game;2017-03-02-11-25-34;1,0;9,0;-100;3,0;2,0;0,0;1,0;row;1,0;False;False;False;1,08299994469;True;0,871999979019
RHN1998w;game;2017-03-02-11-25-34;1,0;10,0;-100;1,0;3,0;0,0;2,0;row;1,0;True;True;False;0,75;False;1,42900013924
RHN1998w;game;2017-03-02-11-25-34;1,0;11,0;-100;1,0;0,0;3,0;2,0;column;1,0;False;False;True;1,35100007057;False;1,46799993515
RHN1998w;game;2017-03-02-11-25-34;1,0;12,0;-100;0,0;3,0;2,0;1,0;column;1,0;True;False;False;1,65000009537;False;1,36000013351
RHN1998w;game;2017-03-02-11-25-34;1,0;13,0;-100;1,0;2,0;0,0;3,0;row;1,0;False;True;False;1,01699995995;True;1,33999991417
RHN1998w;game;2017-03-02-11-25-34;1,0;14,0;-100;2,0;1,0;0,0;3,0;row;0,0;True;True;False;0,983000040054;False;1,43099999428
RHN1998w;game;2017-03-02-11-25-34;1,0;15,0;-100;3,0;2,0;1,0;0,0;column;1,0;False;False;False;1,48300004005;True;0,901000022888
RHN1998w;game;2017-03-02-11-25-34;1,0;16,0;-100;1,0;2,0;3,0;0,0;column;1,0;True;False;True;1,4470000267;True;0,930000066757
RHN1998w;game;2017-03-02-11-25-34;1,0;17,0;-100;1,0;2,0;3,0;0,0;column;0,0;False;True;False;1,617000103;True;0,960000038147
RHN1998w;game;2017-03-02-11-25-34;1,0;18,0;-100;3,0;2,0;1,0;0,0;row;1,0;True;False;True;1,28299999237;True;0,598999977112
RHN1998w;game;2017-03-02-11-25-34;1,0;19,0;-100;1,0;3,0;0,0;2,0;row;0,0;True;False;True;1,31500005722;True;0,634000062943
RHN1998w;game;2017-03-02-11-25-34;1,0;20,0;-100;0,0;1,0;3,0;2,0;column;0,0;True;False;True;0,983000040054;True;1,33500003815
RHN1998w;game;2017-03-02-11-25-34;1,0;21,0;-100;3,0;1,0;2,0;0,0;column;1,0;False;False;False;1,14899992943;True;1,10500001907
RHN1998w;game;2017-03-02-11-25-34;1,0;22,0;-100;1,0;0,0;2,0;3,0;row;1,0;False;False;False;1,01499986649;True;0,669000148773
RHN1998w;game;2017-03-02-11-25-34;1,0;23,0;-100;3,0;1,0;0,0;2,0;row;0,0;False;False;False;1,11699986458;True;1,23399996758
RHN1998w;game;2017-03-02-11-25-34;1,0;24,0;-100;2,0;1,0;3,0;0,0;column;0,0;True;False;False;0,815999984741;False;1,39399981499
RHN1998w;game;2017-03-02-11-25-34;1,0;25,0;-100;1,0;2,0;0,0;3,0;row;0,0;False;False;False;1,18399977684;True;1,02699995041
RHN1998w;game;2017-03-02-11-25-34;1,0;26,0;-100;2,0;1,0;0,0;3,0;column;0,0;True;True;True;0,980999946594;True;0,531999826431
RHN1998w;game;2017-03-02-11-25-34;1,0;27,0;-100;0,0;3,0;1,0;2,0;column;1,0;True;False;False;1,31599998474;False;0,723000049591
RHN1998w;game;2017-03-02-11-25-34;1,0;28,0;-100;1,0;3,0;2,0;0,0;column;1,0;True;False;False;1,48399996758;False;0,533999919891
RHN1998w;game;2017-03-02-11-25-34;1,0;29,0;-100;1,0;2,0;0,0;3,0;column;0,0;False;True;False;1,41600012779;True;1,13100004196
RHN1998w;game;2017-03-02-11-25-34;1,0;30,0;-100;2,0;0,0;1,0;3,0;column;1,0;True;False;True;1,35000014305;True;0,928999900818
RHN1998w;game;2017-03-02-11-25-34;1,0;31,0;-100;2,0;0,0;1,0;3,0;row;0,0;False;True;True;1,25;False;1,22899985313
RHN1998w;game;2017-03-02-11-25-34;1,0;32,0;-100;0,0;1,0;2,0;3,0;column;1,0;False;True;False;1,21499991417;True;1,40199995041
RHN1998w;game;2017-03-02-11-25-34;1,0;33,0;-100;1,0;0,0;3,0;2,0;column;0,0;False;False;False;1,71399998665;True;0,601999998093
RHN1998w;game;2017-03-02-11-25-34;1,0;34,0;-100;2,0;0,0;1,0;3,0;row;1,0;False;True;False;1,14999985695;True;0,630999803543
RHN1998w;game;2017-03-02-11-25-34;1,0;35,0;-100;3,0;2,0;1,0;0,0;row;0,0;False;False;False;1,24900007248;True;0,757999897003
RHN1998w;game;2017-03-02-11-25-34;1,0;36,0;-100;3,0;0,0;1,0;2,0;row;0,0;True;False;True;1,18300008774;True;0,901999950409
RHN1998w;game;2017-03-02-11-25-34;1,0;37,0;-100;1,0;2,0;0,0;3,0;row;0,0;True;True;False;1,37999987602;False;0,969000101089
RHN1998w;game;2017-03-02-11-25-34;1,0;38,0;-100;0,0;3,0;2,0;1,0;column;0,0;False;False;False;1,51699995995;True;1,06500005722
RHN1998w;game;2017-03-02-11-25-34;1,0;39,0;-100;0,0;3,0;1,0;2,0;column;0,0;True;True;True;1,04999995232;True;0,638999938965
RHN1998w;game;2017-03-02-11-25-34;1,0;40,0;-100;0,0;3,0;2,0;1,0;row;0,0;False;False;False;1,55100011826;True;0,728999853134
RHN1998w;game;2017-03-02-11-25-34;1,0;41,0;-100;0,0;2,0;3,0;1,0;column;1,0;False;False;False;1,51600003242;True;1,23600006104
RHN1998w;game;2017-03-02-11-25-34;1,0;42,0;-100;3,0;0,0;2,0;1,0;column;0,0;True;False;True;1,1819999218;True;0,559000015259
RHN1998w;game;2017-03-02-11-25-34;1,0;43,0;-100;1,0;2,0;0,0;3,0;row;1,0;True;False;False;1,21499991417;False;1,26399993896
RHN1998w;game;2017-03-02-11-25-34;1,0;44,0;-100;1,0;0,0;2,0;3,0;row;1,0;True;False;True;1,57999992371;True;0,670000076294
RHN1998w;game;2017-03-02-11-25-34;1,0;45,0;-100;0,0;1,0;2,0;3,0;column;0,0;False;True;False;0,983000040054;True;0,803999900818
RHN1998w;game;2017-03-02-11-25-34;1,0;46,0;-100;2,0;0,0;3,0;1,0;column;1,0;False;True;False;1,38199996948;True;0,805999994278
RHN1998w;game;2017-03-02-11-25-34;1,0;47,0;-100;2,0;3,0;0,0;1,0;column;1,0;False;True;False;0,946000099182;True;1,03099989891
RHN1998w;game;2017-03-02-11-25-34;1,0;48,0;-100;1,0;0,0;2,0;3,0;column;0,0;False;False;False;1,14900016785;True;1,39899992943
RHN1998w;game;2017-03-02-11-25-34;2,0;1,0;100;1,0;2,0;0,0;3,0;row;1,0;True;False;False;0,967000007629;False;0,742999792099
RHN1998w;game;2017-03-02-11-25-34;2,0;2,0;100;3,0;0,0;2,0;1,0;row;1,0;True;True;True;1,132999897;True;0,538000106812
RHN1998w;game;2017-03-02-11-25-34;2,0;3,0;100;0,0;1,0;2,0;3,0;row;1,0;True;False;False;1,30000019073;False;1,23699998856
RHN1998w;game;2017-03-02-11-25-34;2,0;4,0;100;2,0;1,0;0,0;3,0;row;0,0;False;True;False;0,967000007629;True;1,46700000763
RHN1998w;game;2017-03-02-11-25-34;2,0;5,0;100;3,0;2,0;0,0;1,0;column;0,0;True;True;True;1,0;True;0,694000005722
RHN1998w;game;2017-03-02-11-25-34;2,0;6,0;100;3,0;1,0;0,0;2,0;column;0,0;False;True;False;1,53299999237;True;1,28900003433
RHN1998w;game;2017-03-02-11-25-34;2,0;7,0;100;0,0;1,0;2,0;3,0;column;1,0;True;False;False;1,99900007248;False;0,831000089645
RHN1998w;game;2017-03-02-11-25-34;2,0;8,0;100;1,0;0,0;2,0;3,0;column;0,0;False;True;False;1,0;True;0,832999944687
RHN1998w;game;2017-03-02-11-25-34;2,0;9,0;100;0,0;3,0;1,0;2,0;row;1,0;False;False;True;1,79999995232;False;1,37299990654
RHN1998w;game;2017-03-02-11-25-34;2,0;10,0;100;1,0;0,0;3,0;2,0;column;1,0;False;True;False;1,5;True;0,859999895096
RHN1998w;game;2017-03-02-11-25-34;2,0;11,0;100;0,0;3,0;1,0;2,0;row;0,0;False;True;False;1,19799995422;True;1,30300021172
RHN1998w;game;2017-03-02-11-25-34;2,0;12,0;100;2,0;1,0;0,0;3,0;column;0,0;True;False;False;1,20000004768;False;1,25999999046
RHN1998w;game;2017-03-02-11-25-34;2,0;13,0;100;0,0;1,0;3,0;2,0;column;0,0;False;False;False;0,966000080109;True;0,842000007629
RHN1998w;game;2017-03-02-11-25-34;2,0;14,0;100;0,0;3,0;1,0;2,0;row;0,0;True;False;False;0,998999834061;False;1,02399992943
RHN1998w;game;2017-03-02-11-25-34;2,0;15,0;100;2,0;0,0;3,0;1,0;column;0,0;False;False;False;1,06599998474;True;1,30399990082
RHN1998w;game;2017-03-02-11-25-34;2,0;16,0;100;0,0;2,0;3,0;1,0;row;0,0;True;False;True;1,53399991989;True;0,605000019073
RHN1998w;game;2017-03-02-11-25-34;2,0;17,0;100;3,0;1,0;0,0;2,0;column;1,0;True;True;True;2,09899997711;True;0,573000192642
RHN1998w;game;2017-03-02-11-25-34;2,0;18,0;100;1,0;3,0;0,0;2,0;column;0,0;False;False;False;1,132999897;True;0,621999979019
RHN1998w;game;2017-03-02-11-25-34;2,0;19,0;100;1,0;2,0;3,0;0,0;column;1,0;False;True;False;1,43200016022;True;0,799000024796
RHN1998w;game;2017-03-02-11-25-34;2,0;20,0;100;2,0;0,0;3,0;1,0;column;0,0;True;False;False;1,09899997711;False;0,569999933243
RHN1998w;game;2017-03-02-11-25-34;2,0;21,0;100;1,0;0,0;2,0;3,0;column;1,0;False;True;False;1,90000009537;True;0,572000026703
RHN1998w;game;2017-03-02-11-25-34;2,0;22,0;100;2,0;0,0;1,0;3,0;column;1,0;True;True;False;1,06599998474;False;1,3029999733
RHN1998w;game;2017-03-02-11-25-34;2,0;23,0;100;3,0;0,0;1,0;2,0;column;0,0;True;True;True;1,16699981689;True;1,50199985504
RHN1998w;game;2017-03-02-11-25-34;2,0;24,0;100;2,0;0,0;1,0;3,0;column;0,0;False;False;True;1,19900012016;False;1,15899991989
RHN1998w;game;2017-03-02-11-25-34;2,0;25,0;100;2,0;3,0;0,0;1,0;column;1,0;True;False;True;1,80199980736;True;1,26400017738
RHN1998w;game;2017-03-02-11-25-34;2,0;26,0;100;1,0;2,0;0,0;3,0;column;0,0;False;True;False;1,03299999237;True;1,0039999485
RHN1998w;game;2017-03-02-11-25-34;2,0;27,0;100;2,0;3,0;1,0;0,0;column;1,0;False;True;False;1,46700000763;True;0,565999984741
RHN1998w;game;2017-03-02-11-25-34;2,0;28,0;100;0,0;1,0;2,0;3,0;row;0,0;False;True;False;1,49699997902;True;0,524999856949
RHN1998w;game;2017-03-02-11-25-34;2,0;29,0;100;0,0;2,0;1,0;3,0;column;0,0;False;False;False;1,33300018311;True;1,132999897
RHN1998w;game;2017-03-02-11-25-34;2,0;30,0;100;2,0;1,0;3,0;0,0;column;1,0;False;True;False;1,36500000954;True;0,703000068665
RHN1998w;game;2017-03-02-11-25-34;2,0;31,0;100;0,0;3,0;2,0;1,0;column;1,0;True;False;True;1,20000004768;True;1,22699999809
RHN1998w;game;2017-03-02-11-25-34;2,0;32,0;100;3,0;2,0;0,0;1,0;column;0,0;False;True;False;2,23399996758;True;1,29700016975
RHN1998w;game;2017-03-02-11-25-34;2,0;33,0;100;3,0;2,0;0,0;1,0;row;1,0;True;False;False;1,60000014305;False;0,796000003815
RHN1998w;game;2017-03-02-11-25-34;2,0;34,0;100;1,0;0,0;2,0;3,0;row;1,0;False;True;False;1,23399996758;True;0,736999988556
RHN1998w;game;2017-03-02-11-25-34;2,0;35,0;100;1,0;2,0;3,0;0,0;column;0,0;False;True;False;1,70000004768;True;0,90299987793
RHN1998w;game;2017-03-02-11-25-34;2,0;36,0;100;3,0;1,0;0,0;2,0;row;0,0;False;True;False;0,99799990654;True;1,13900017738
RHN1998w;game;2017-03-02-11-25-34;2,0;37,0;100;0,0;2,0;3,0;1,0;row;1,0;False;True;False;0,932999849319;True;0,894000053406
RHN1998w;game;2017-03-02-11-25-34;2,0;38,0;100;0,0;2,0;3,0;1,0;column;1,0;True;True;True;1,23399996758;True;0,999000072479
RHN1998w;game;2017-03-02-11-25-34;2,0;39,0;100;1,0;3,0;0,0;2,0;column;1,0;False;True;False;1,13400006294;True;0,993999958038
RHN1998w;game;2017-03-02-11-25-34;2,0;40,0;100;2,0;0,0;1,0;3,0;row;1,0;True;False;True;1,06699991226;True;1,06599998474
RHN1998w;game;2017-03-02-11-25-34;2,0;41,0;100;2,0;1,0;3,0;0,0;row;1,0;True;True;False;1,29999995232;False;1,0039999485
RHN1998w;game;2017-03-02-11-25-34;2,0;42,0;100;1,0;3,0;2,0;0,0;row;0,0;False;False;False;1,29999995232;True;0,904000043869
RHN1998w;game;2017-03-02-11-25-34;2,0;43,0;100;3,0;1,0;2,0;0,0;row;0,0;True;True;False;0,966000080109;False;0,559000015259
RHN1998w;game;2017-03-02-11-25-34;2,0;44,0;100;1,0;0,0;3,0;2,0;row;1,0;True;True;True;1,56599998474;True;0,799999952316
RHN1998w;game;2017-03-02-11-25-34;2,0;45,0;100;1,0;2,0;0,0;3,0;column;1,0;False;True;False;1,40000009537;True;1,36100006104
RHN1998w;game;2017-03-02-11-25-34;2,0;46,0;100;0,0;2,0;3,0;1,0;column;1,0;False;False;False;0,934000015259;True;0,705999851227
RHN1998w;game;2017-03-02-11-25-34;2,0;47,0;100;3,0;0,0;1,0;2,0;row;0,0;False;True;False;1,33299994469;True;0,566999912262
RHN1998w;game;2017-03-02-11-25-34;2,0;48,0;100;0,0;3,0;2,0;1,0;row;0,0;True;True;False;1,13400006294;False;0,835000038147
RHN1998w;game;2017-03-02-11-25-34;3,0;1,0;1000;0,0;2,0;3,0;1,0;row;0,0;True;True;False;1,33299994469;False;1,1970000267
RHN1998w;game;2017-03-02-11-25-34;3,0;2,0;1000;1,0;2,0;3,0;0,0;row;0,0;True;True;False;1,03399991989;False;1,26600003242
RHN1998w;game;2017-03-02-11-25-34;3,0;3,0;1000;1,0;2,0;0,0;3,0;row;0,0;True;False;False;1,132999897;False;1,4279999733
RHN1998w;game;2017-03-02-11-25-34;3,0;4,0;1000;2,0;3,0;1,0;0,0;row;1,0;True;False;False;0,867000102997;False;1,2990000248
RHN1998w;game;2017-03-02-11-25-34;3,0;5,0;1000;2,0;1,0;0,0;3,0;column;0,0;False;True;True;1,43300008774;False;1,09599995613
RHN1998w;game;2017-03-02-11-25-34;3,0;6,0;1000;1,0;3,0;2,0;0,0;row;1,0;False;True;False;1,03299999237;True;0,992999792099
RHN1998w;game;2017-03-02-11-25-34;3,0;7,0;1000;3,0;1,0;2,0;0,0;row;1,0;False;True;False;1,09999990463;True;0,698999881744
RHN1998w;game;2017-03-02-11-25-34;3,0;8,0;1000;2,0;3,0;0,0;1,0;column;0,0;False;True;False;0,832999944687;True;0,697000026703
RHN1998w;game;2017-03-02-11-25-34;3,0;9,0;1000;2,0;0,0;1,0;3,0;row;1,0;False;False;False;1,74199986458;True;1,32099986076
RHN1998w;game;2017-03-02-11-25-34;3,0;10,0;1000;1,0;2,0;3,0;0,0;column;0,0;False;True;False;2,03299999237;True;0,887000083923
RHN1998w;game;2017-03-02-11-25-34;3,0;11,0;1000;0,0;1,0;2,0;3,0;row;1,0;True;True;False;2,16700005531;False;1,09200000763
RHN1998w;game;2017-03-02-11-25-34;3,0;12,0;1000;1,0;0,0;3,0;2,0;column;0,0;True;False;True;1,33400011063;True;0,567000150681
RHN1998w;game;2017-03-02-11-25-34;3,0;13,0;1000;0,0;2,0;1,0;3,0;column;0,0;False;False;False;1,40000009537;True;1,36600017548
RHN1998w;game;2017-03-02-11-25-34;3,0;14,0;1000;1,0;0,0;3,0;2,0;column;0,0;False;False;False;1,46700000763;True;1,03200006485
RHN1998w;game;2017-03-02-11-25-34;3,0;15,0;1000;3,0;1,0;2,0;0,0;row;0,0;False;True;False;1,89899992943;True;1,39700007439
RHN1998w;game;2017-03-02-11-25-34;3,0;16,0;1000;0,0;3,0;1,0;2,0;row;0,0;True;True;False;1,56699991226;False;1,29999995232
RHN1998w;game;2017-03-02-11-25-34;3,0;17,0;1000;2,0;0,0;3,0;1,0;row;1,0;True;False;False;1,93300008774;False;1,46799993515
RHN1998w;game;2017-03-02-11-25-34;3,0;18,0;1000;2,0;1,0;3,0;0,0;row;1,0;True;True;False;3,06699991226;False;0,665999889374
RHN1998w;game;2017-03-02-11-25-34;3,0;19,0;1000;3,0;1,0;0,0;2,0;row;1,0;False;False;False;1,30000019073;True;1,22799992561
RHN1998w;game;2017-03-02-11-25-34;3,0;20,0;1000;0,0;3,0;1,0;2,0;column;0,0;True;True;False;1,06700015068;False;1,26999998093
RHN1998w;game;2017-03-02-11-25-34;3,0;21,0;1000;1,0;0,0;2,0;3,0;row;1,0;True;True;False;1,73399996758;False;1,12699985504
RHN1998w;game;2017-03-02-11-25-34;3,0;22,0;1000;0,0;1,0;3,0;2,0;row;1,0;False;True;False;1,33300018311;True;1,46099996567
RHN1998w;game;2017-03-02-11-25-34;3,0;23,0;1000;0,0;3,0;2,0;1,0;column;1,0;True;True;True;0,767000198364;True;0,539000034332
RHN1998w;game;2017-03-02-11-25-34;3,0;24,0;1000;3,0;0,0;1,0;2,0;column;0,0;True;True;False;0,866000175476;False;0,933000087738
RHN1998w;game;2017-03-02-11-25-34;3,0;25,0;1000;2,0;3,0;1,0;0,0;row;1,0;False;False;True;1,96499991417;False;1,36800003052
RHN1998w;game;2017-03-02-11-25-34;3,0;26,0;1000;1,0;0,0;2,0;3,0;row;1,0;False;False;True;1,23200011253;False;0,625
RHN1998w;game;2017-03-02-11-25-34;3,0;27,0;1000;3,0;2,0;0,0;1,0;row;1,0;True;False;True;2,33699989319;True;0,802999973297
RHN1998w;game;2017-03-02-11-25-34;3,0;28,0;1000;3,0;2,0;1,0;0,0;row;1,0;False;True;False;1,40000009537;True;1,17000007629
RHN1998w;game;2017-03-02-11-25-34;3,0;29,0;1000;1,0;2,0;0,0;3,0;row;1,0;True;True;True;1,26600003242;True;1,5039999485
RHN1998w;game;2017-03-02-11-25-34;3,0;30,0;1000;0,0;1,0;3,0;2,0;column;1,0;False;True;False;1,76600003242;True;1,4399998188
RHN1998w;game;2017-03-02-11-25-34;3,0;31,0;1000;3,0;0,0;1,0;2,0;row;1,0;True;False;True;1,16600012779;True;1,39700007439
RHN1998w;game;2017-03-02-11-25-34;3,0;32,0;1000;0,0;3,0;2,0;1,0;row;1,0;False;False;False;1,16700005531;True;0,924000024796
RHN1998w;game;2017-03-02-11-25-34;3,0;33,0;1000;0,0;3,0;2,0;1,0;row;0,0;True;True;True;1,53299999237;True;1,06299996376
RHN1998w;game;2017-03-02-11-25-34;3,0;34,0;1000;0,0;2,0;1,0;3,0;row;1,0;False;False;False;1,23300004005;True;1,02900004387
RHN1998w;game;2017-03-02-11-25-34;3,0;35,0;1000;1,0;2,0;0,0;3,0;column;0,0;False;True;False;1,2009999752;True;0,699000120163
RHN1998w;game;2017-03-02-11-25-34;3,0;36,0;1000;3,0;0,0;2,0;1,0;column;0,0;True;False;True;1,36699986458;True;0,792999982834
RHN1998w;game;2017-03-02-11-25-34;3,0;37,0;1000;1,0;2,0;3,0;0,0;row;0,0;False;False;False;2,73099994659;True;0,59099984169
RHN1998w;game;2017-03-02-11-25-34;3,0;38,0;1000;0,0;2,0;3,0;1,0;row;1,0;False;False;False;1,53299999237;True;0,631000041962
RHN1998w;game;2017-03-02-11-25-34;3,0;39,0;1000;2,0;3,0;0,0;1,0;row;0,0;True;False;False;1,33299994469;False;0,967000007629
RHN1998w;game;2017-03-02-11-25-34;3,0;40,0;1000;1,0;0,0;2,0;3,0;column;0,0;True;True;True;1,23300004005;True;1,46700000763
RHN1998w;game;2017-03-02-11-25-34;3,0;41,0;1000;3,0;0,0;2,0;1,0;row;1,0;False;True;False;1,30099987984;True;1,16300010681
RHN1998w;game;2017-03-02-11-25-34;3,0;42,0;1000;3,0;1,0;0,0;2,0;column;1,0;True;False;False;2,0;False;1,13100004196
RHN1998w;game;2017-03-02-11-25-34;3,0;43,0;1000;0,0;2,0;3,0;1,0;column;1,0;True;False;True;0,933000087738;True;0,894000053406
RHN1998w;game;2017-03-02-11-25-34;3,0;44,0;1000;1,0;3,0;2,0;0,0;column;1,0;True;False;True;2,367000103;True;0,56299996376
RHN1998w;game;2017-03-02-11-25-34;3,0;45,0;1000;1,0;2,0;0,0;3,0;column;1,0;False;False;False;1,39800000191;True;0,838000059128
RHN1998w;game;2017-03-02-11-25-34;3,0;46,0;1000;2,0;3,0;1,0;0,0;row;0,0;False;False;False;0,900000095367;True;1,13000011444
RHN1998w;game;2017-03-02-11-25-34;3,0;47,0;1000;1,0;2,0;3,0;0,0;row;1,0;True;True;False;1,23399996758;False;0,565999984741
RHN1998w;game;2017-03-02-11-25-34;3,0;48,0;1000;1,0;0,0;2,0;3,0;column;1,0;False;True;True;0,833000183105;False;1,23600006104
RHN1998w;game;2017-03-02-11-25-34;4,0;1,0;100;1,0;0,0;3,0;2,0;row;0,0;True;True;True;1,69900012016;True;0,658999919891
RHN1998w;game;2017-03-02-11-25-34;4,0;2,0;100;2,0;3,0;0,0;1,0;row;1,0;True;True;True;1,53299999237;True;0,832999944687
RHN1998w;game;2017-03-02-11-25-34;4,0;3,0;100;1,0;0,0;2,0;3,0;row;0,0;True;True;True;1,33099985123;True;0,569999933243
RHN1998w;game;2017-03-02-11-25-34;4,0;4,0;100;2,0;3,0;1,0;0,0;row;1,0;False;False;True;2,63100004196;False;1,03900003433
RHN1998w;game;2017-03-02-11-25-34;4,0;5,0;100;1,0;3,0;2,0;0,0;row;1,0;True;False;True;1,10000014305;True;1,2009999752
RHN1998w;game;2017-03-02-11-25-34;4,0;6,0;100;0,0;1,0;3,0;2,0;row;0,0;False;True;False;1,70000004768;True;0,802000045776
RHN1998w;game;2017-03-02-11-25-34;4,0;7,0;100;2,0;3,0;1,0;0,0;column;0,0;True;False;False;1,19999980927;False;0,862999916077
RHN1998w;game;2017-03-02-11-25-34;4,0;8,0;100;0,0;2,0;3,0;1,0;row;0,0;False;True;False;1,132999897;True;1,43499994278
RHN1998w;game;2017-03-02-11-25-34;4,0;9,0;100;1,0;0,0;2,0;3,0;row;1,0;True;True;False;2,33399987221;False;1,46000003815
RHN1998w;game;2017-03-02-11-25-34;4,0;10,0;100;3,0;2,0;0,0;1,0;row;0,0;False;False;False;1,33299994469;True;0,898000001907
RHN1998w;game;2017-03-02-11-25-34;4,0;11,0;100;2,0;3,0;1,0;0,0;row;0,0;False;False;False;0,999000072479;True;1,10300016403
RHN1998w;game;2017-03-02-11-25-34;4,0;12,0;100;2,0;0,0;3,0;1,0;row;0,0;True;True;False;1,02999997139;False;1,02900004387
RHN1998w;game;2017-03-02-11-25-34;4,0;13,0;100;1,0;2,0;0,0;3,0;row;0,0;True;True;False;0,967000007629;False;1,4960000515
RHN1998w;game;2017-03-02-11-25-34;4,0;14,0;100;2,0;0,0;1,0;3,0;row;0,0;True;False;True;1,20000004768;True;0,595999956131
RHN1998w;game;2017-03-02-11-25-34;4,0;15,0;100;1,0;3,0;2,0;0,0;row;1,0;False;False;False;2,29999995232;True;1,50099992752
RHN1998w;game;2017-03-02-11-25-34;4,0;16,0;100;2,0;1,0;0,0;3,0;column;1,0;True;True;False;1,09899997711;False;1,00600004196
RHN1998w;game;2017-03-02-11-25-34;4,0;17,0;100;2,0;3,0;1,0;0,0;row;0,0;True;True;True;1,43299984932;True;1,42700004578
RHN1998w;game;2017-03-02-11-25-34;4,0;18,0;100;0,0;1,0;2,0;3,0;row;1,0;False;False;False;1,5;True;1,2650001049
RHN1998w;game;2017-03-02-11-25-34;4,0;19,0;100;3,0;2,0;1,0;0,0;row;0,0;False;True;False;1,66499996185;True;0,638999938965
RHN1998w;game;2017-03-02-11-25-34;4,0;20,0;100;3,0;0,0;2,0;1,0;column;1,0;False;True;False;1,53299999237;True;1,42999982834
RHN1998w;game;2017-03-02-11-25-34;4,0;21,0;100;0,0;3,0;2,0;1,0;row;1,0;False;False;False;1,59999990463;True;0,832000017166
RHN1998w;game;2017-03-02-11-25-34;4,0;22,0;100;3,0;0,0;2,0;1,0;row;0,0;True;False;True;0,897999763489;True;1,10100007057
RHN1998w;game;2017-03-02-11-25-34;4,0;23,0;100;1,0;3,0;2,0;0,0;column;1,0;True;False;True;1,03299999237;True;0,99599981308
RHN1998w;game;2017-03-02-11-25-34;4,0;24,0;100;0,0;3,0;1,0;2,0;column;0,0;False;True;False;1,36500000954;True;0,823999881744
RHN1998w;game;2017-03-02-11-25-34;4,0;25,0;100;1,0;2,0;3,0;0,0;row;0,0;False;True;False;1,16699981689;True;1,32100009918
RHN1998w;game;2017-03-02-11-25-34;4,0;26,0;100;0,0;2,0;1,0;3,0;column;1,0;False;False;False;1,13199996948;True;1,20000004768
RHN1998w;game;2017-03-02-11-25-34;4,0;27,0;100;3,0;1,0;0,0;2,0;column;1,0;False;True;False;1,46700000763;True;0,927999973297
RHN1998w;game;2017-03-02-11-25-34;4,0;28,0;100;3,0;1,0;0,0;2,0;row;1,0;False;False;False;1,39999985695;True;0,836999893188
RHN1998w;game;2017-03-02-11-25-34;4,0;29,0;100;0,0;3,0;1,0;2,0;column;1,0;True;True;True;0,900000095367;True;0,567000150681
RHN1998w;game;2017-03-02-11-25-34;4,0;30,0;100;1,0;3,0;0,0;2,0;column;0,0;True;True;True;1,20000004768;True;0,792999982834
RHN1998w;game;2017-03-02-11-25-34;4,0;31,0;100;1,0;0,0;3,0;2,0;row;1,0;False;True;False;1,5;True;0,666000127792
RHN1998w;game;2017-03-02-11-25-34;4,0;32,0;100;1,0;0,0;3,0;2,0;row;0,0;False;False;True;2,53199982643;False;1,13400006294
RHN1998w;game;2017-03-02-11-25-34;4,0;33,0;100;2,0;0,0;1,0;3,0;row;0,0;False;False;False;1,70000004768;True;0,62299990654
RHN1998w;game;2017-03-02-11-25-34;4,0;34,0;100;0,0;1,0;2,0;3,0;column;0,0;False;False;False;1,23300004005;True;0,741000175476
RHN1998w;game;2017-03-02-11-25-34;4,0;35,0;100;1,0;2,0;3,0;0,0;column;1,0;True;False;True;1,16600012779;True;1,43099999428
RHN1998w;game;2017-03-02-11-25-34;4,0;36,0;100;0,0;1,0;3,0;2,0;row;0,0;True;True;False;1,13400006294;False;1,02400016785
RHN1998w;game;2017-03-02-11-25-34;4,0;37,0;100;3,0;0,0;2,0;1,0;column;1,0;True;False;True;1,59899997711;True;1,02900004387
RHN1998w;game;2017-03-02-11-25-34;4,0;38,0;100;1,0;3,0;2,0;0,0;column;0,0;False;True;False;0,932999849319;True;1,43300008774
RHN1998w;game;2017-03-02-11-25-34;4,0;39,0;100;3,0;1,0;0,0;2,0;row;0,0;True;True;False;1,23399996758;False;1,03500008583
RHN1998w;game;2017-03-02-11-25-34;4,0;40,0;100;1,0;3,0;0,0;2,0;column;1,0;True;True;True;1,23300004005;True;1,1369998455
RHN1998w;game;2017-03-02-11-25-34;4,0;41,0;100;0,0;1,0;3,0;2,0;row;1,0;True;True;True;0,998999834061;True;1,25999999046
RHN1998w;game;2017-03-02-11-25-34;4,0;42,0;100;0,0;2,0;1,0;3,0;row;0,0;True;True;True;1,23399996758;True;1,02300000191
RHN1998w;game;2017-03-02-11-25-34;4,0;43,0;100;0,0;3,0;1,0;2,0;column;1,0;False;False;False;1,56699991226;True;1,2570002079
RHN1998w;game;2017-03-02-11-25-34;4,0;44,0;100;1,0;3,0;2,0;0,0;column;1,0;False;True;False;1,43299984932;True;1,16700005531
RHN1998w;game;2017-03-02-11-25-34;4,0;45,0;100;0,0;1,0;2,0;3,0;row;0,0;True;True;True;1,49900007248;True;1,29700016975
RHN1998w;game;2017-03-02-11-25-34;4,0;46,0;100;1,0;2,0;0,0;3,0;column;0,0;True;False;True;1,06699991226;True;1,26200008392
RHN1998w;game;2017-03-02-11-25-34;4,0;47,0;100;3,0;1,0;2,0;0,0;row;1,0;False;True;False;1,56599998474;True;1,13099980354
RHN1998w;game;2017-03-02-11-25-34;4,0;48,0;100;2,0;3,0;0,0;1,0;row;0,0;False;True;False;2,16600012779;True;0,93799996376
RHN1998w;game;2017-03-02-11-25-34;5,0;1,0;1000;3,0;2,0;0,0;1,0;column;1,0;False;False;False;1,5;True;0,888000011444
RHN1998w;game;2017-03-02-11-25-34;5,0;2,0;1000;1,0;3,0;2,0;0,0;row;0,0;False;True;False;1,89800000191;True;0,801000118256
RHN1998w;game;2017-03-02-11-25-34;5,0;3,0;1000;1,0;0,0;2,0;3,0;row;0,0;True;False;False;1,46700000763;False;0,605999946594
RHN1998w;game;2017-03-02-11-25-34;5,0;4,0;1000;2,0;3,0;0,0;1,0;row;1,0;True;False;False;2,19999980927;False;0,767999887466
RHN1998w;game;2017-03-02-11-25-34;5,0;5,0;1000;3,0;1,0;2,0;0,0;row;0,0;True;True;False;1,10000014305;False;0,957000017166
RHN1998w;game;2017-03-02-11-25-34;5,0;6,0;1000;0,0;3,0;2,0;1,0;column;0,0;False;True;False;0,866999864578;True;1,32800006866
RHN1998w;game;2017-03-02-11-25-34;5,0;7,0;1000;0,0;1,0;3,0;2,0;column;0,0;False;False;False;1,43400001526;True;1,00100016594
RHN1998w;game;2017-03-02-11-25-34;5,0;8,0;1000;0,0;3,0;1,0;2,0;row;1,0;False;True;False;1,53299999237;True;0,56200003624
RHN1998w;game;2017-03-02-11-25-34;5,0;9,0;1000;2,0;1,0;3,0;0,0;column;0,0;True;False;True;1,06700015068;True;1,15799999237
RHN1998w;game;2017-03-02-11-25-34;5,0;10,0;1000;3,0;0,0;2,0;1,0;column;1,0;True;True;False;1,03200006485;False;0,689999818802
RHN1998w;game;2017-03-02-11-25-34;5,0;11,0;1000;1,0;3,0;2,0;0,0;row;0,0;True;True;False;1,06699991226;False;0,698999881744
RHN1998w;game;2017-03-02-11-25-34;5,0;12,0;1000;3,0;2,0;0,0;1,0;row;0,0;False;True;False;1,66300010681;True;0,93700003624
RHN1998w;game;2017-03-02-11-25-34;5,0;13,0;1000;0,0;2,0;1,0;3,0;column;0,0;True;True;True;2,13300013542;True;1,35900020599
RHN1998w;game;2017-03-02-11-25-34;5,0;14,0;1000;2,0;0,0;3,0;1,0;column;1,0;True;False;True;1,13300013542;True;1,46399998665
RHN1998w;game;2017-03-02-11-25-34;5,0;15,0;1000;2,0;0,0;1,0;3,0;row;0,0;True;True;True;1,2009999752;True;0,995000123978
RHN1998w;game;2017-03-02-11-25-34;5,0;16,0;1000;0,0;2,0;1,0;3,0;column;1,0;False;False;False;1,33299994469;True;0,968000173569
RHN1998w;game;2017-03-02-11-25-34;5,0;17,0;1000;2,0;1,0;3,0;0,0;row;0,0;True;True;True;1,16699981689;True;1,36500000954
RHN1998w;game;2017-03-02-11-25-34;5,0;18,0;1000;2,0;1,0;3,0;0,0;row;0,0;False;False;False;1,03400015831;True;1,3639998436
RHN1998w;game;2017-03-02-11-25-34;5,0;19,0;1000;1,0;3,0;0,0;2,0;row;1,0;True;True;False;2,0;False;1,23900008202
RHN1998w;game;2017-03-02-11-25-34;5,0;20,0;1000;1,0;3,0;0,0;2,0;column;1,0;True;True;True;2,09999990463;True;0,932000160217
RHN1998w;game;2017-03-02-11-25-34;5,0;21,0;1000;1,0;0,0;2,0;3,0;row;0,0;False;False;False;1,367000103;True;0,769000053406
RHN1998w;game;2017-03-02-11-25-34;5,0;22,0;1000;2,0;1,0;0,0;3,0;column;0,0;True;True;True;0,933000087738;True;0,628000020981
RHN1998w;game;2017-03-02-11-25-34;5,0;23,0;1000;0,0;1,0;3,0;2,0;column;0,0;True;False;False;1,5;False;1,3639998436
RHN1998w;game;2017-03-02-11-25-34;5,0;24,0;1000;0,0;3,0;2,0;1,0;column;1,0;False;False;False;1,56599998474;True;1,09299993515
RHN1998w;game;2017-03-02-11-25-34;5,0;25,0;1000;2,0;3,0;0,0;1,0;column;1,0;True;True;True;1,56799983978;True;1,49199986458
RHN1998w;game;2017-03-02-11-25-34;5,0;26,0;1000;2,0;1,0;3,0;0,0;row;1,0;False;False;False;1,33299994469;True;0,928999900818
RHN1998w;game;2017-03-02-11-25-34;5,0;27,0;1000;2,0;0,0;3,0;1,0;column;1,0;False;False;False;1,03300023079;True;0,59099984169
RHN1998w;game;2017-03-02-11-25-34;5,0;28,0;1000;2,0;3,0;1,0;0,0;column;1,0;False;True;False;1,56699991226;True;0,535000085831
RHN1998w;game;2017-03-02-11-25-34;5,0;29,0;1000;2,0;1,0;3,0;0,0;column;1,0;True;True;True;1,86600017548;True;1,13300013542
RHN1998w;game;2017-03-02-11-25-34;5,0;30,0;1000;2,0;0,0;1,0;3,0;row;1,0;True;False;True;0,867000102997;True;0,859999895096
RHN1998w;game;2017-03-02-11-25-34;5,0;31,0;1000;1,0;3,0;0,0;2,0;column;0,0;True;False;True;1,83200001717;True;1,19900012016
RHN1998w;game;2017-03-02-11-25-34;5,0;32,0;1000;3,0;2,0;0,0;1,0;column;1,0;True;True;True;1,03399991989;True;0,896000146866
RHN1998w;game;2017-03-02-11-25-34;5,0;33,0;1000;1,0;0,0;2,0;3,0;column;0,0;False;False;False;1,93299984932;True;1,19899988174
RHN1998w;game;2017-03-02-11-25-34;5,0;34,0;1000;2,0;0,0;1,0;3,0;row;0,0;False;False;False;1,10100007057;True;0,632000207901
RHN1998w;game;2017-03-02-11-25-34;5,0;35,0;1000;2,0;0,0;1,0;3,0;column;1,0;False;False;False;1,53400015831;True;0,967000007629
RHN1998w;game;2017-03-02-11-25-34;5,0;36,0;1000;0,0;2,0;1,0;3,0;row;0,0;False;True;False;1,96700000763;True;1,47099995613
RHN1998w;game;2017-03-02-11-25-34;5,0;37,0;1000;1,0;0,0;2,0;3,0;column;1,0;True;True;True;1,06600022316;True;1,46800017357
RHN1998w;game;2017-03-02-11-25-34;5,0;38,0;1000;0,0;3,0;2,0;1,0;row;1,0;True;False;False;1,96600008011;False;0,894999980927
RHN1998w;game;2017-03-02-11-25-34;5,0;39,0;1000;3,0;0,0;1,0;2,0;row;0,0;False;True;False;1,83299994469;True;1,19400000572
RHN1998w;game;2017-03-02-11-25-34;5,0;40,0;1000;0,0;3,0;1,0;2,0;column;1,0;True;False;True;1,56599998474;True;1,06999993324
RHN1998w;game;2017-03-02-11-25-34;5,0;41,0;1000;2,0;1,0;0,0;3,0;column;1,0;False;False;False;1,26599979401;True;1,43700003624
RHN1998w;game;2017-03-02-11-25-34;5,0;42,0;1000;0,0;3,0;1,0;2,0;column;0,0;False;False;False;1,03399991989;True;0,600000143051
RHN1998w;game;2017-03-02-11-25-34;5,0;43,0;1000;2,0;1,0;0,0;3,0;row;1,0;True;False;False;1,70000004768;False;1,02800011635
RHN1998w;game;2017-03-02-11-25-34;5,0;44,0;1000;1,0;3,0;2,0;0,0;column;0,0;True;True;True;1,39999985695;True;0,570000171661
RHN1998w;game;2017-03-02-11-25-34;5,0;45,0;1000;0,0;1,0;3,0;2,0;row;1,0;True;False;False;1,66700005531;False;0,769999980927
RHN1998w;game;2017-03-02-11-25-34;5,0;46,0;1000;3,0;0,0;1,0;2,0;row;0,0;True;True;False;1,36600017548;False;0,568000078201
RHN1998w;game;2017-03-02-11-25-34;5,0;47,0;1000;3,0;0,0;2,0;1,0;column;0,0;False;False;False;0,998999834061;True;1,43400001526
RHN1998w;game;2017-03-02-11-25-34;5,0;48,0;1000;1,0;0,0;3,0;2,0;column;1,0;False;True;False;1,43400001526;True;0,532999992371
RHN1998w;game;2017-03-02-11-25-34;6,0;1,0;-100;3,0;0,0;1,0;2,0;column;1,0;False;True;False;1,45000004768;True;1,04399991035
RHN1998w;game;2017-03-02-11-25-34;6,0;2,0;-100;1,0;0,0;3,0;2,0;row;0,0;True;False;False;1,18099999428;False;1,5
RHN1998w;game;2017-03-02-11-25-34;6,0;3,0;-100;2,0;1,0;0,0;3,0;column;1,0;False;True;False;1,28299999237;True;0,501999855042
RHN1998w;game;2017-03-02-11-25-34;6,0;4,0;-100;1,0;3,0;2,0;0,0;row;1,0;True;True;True;1,25;True;1,44000005722
RHN1998w;game;2017-03-02-11-25-34;6,0;5,0;-100;2,0;0,0;3,0;1,0;row;0,0;False;False;False;1,28299999237;True;1,13000011444
RHN1998w;game;2017-03-02-11-25-34;6,0;6,0;-100;2,0;3,0;0,0;1,0;row;1,0;True;True;True;1,01600003242;True;1,42499995232
RHN1998w;game;2017-03-02-11-25-34;6,0;7,0;-100;2,0;0,0;3,0;1,0;column;0,0;True;False;True;0,950000047684;True;1,46600008011
RHN1998w;game;2017-03-02-11-25-34;6,0;8,0;-100;0,0;1,0;2,0;3,0;row;0,0;False;False;False;1,08300018311;True;0,695999860764
RHN1998w;game;2017-03-02-11-25-34;6,0;9,0;-100;1,0;2,0;0,0;3,0;column;0,0;True;True;True;1,10100007057;True;0,5609998703
RHN1998w;game;2017-03-02-11-25-34;6,0;10,0;-100;3,0;2,0;0,0;1,0;column;1,0;False;False;False;1,31699991226;True;0,56299996376
RHN1998w;game;2017-03-02-11-25-34;6,0;11,0;-100;0,0;3,0;2,0;1,0;row;1,0;False;False;False;1,41399979591;True;1,33099985123
RHN1998w;game;2017-03-02-11-25-34;6,0;12,0;-100;0,0;3,0;2,0;1,0;row;1,0;True;True;True;0,883000135422;True;1,09500002861
RHN1998w;game;2017-03-02-11-25-34;6,0;13,0;-100;3,0;0,0;2,0;1,0;row;1,0;False;True;False;1,58099985123;True;1,00200009346
RHN1998w;game;2017-03-02-11-25-34;6,0;14,0;-100;3,0;2,0;1,0;0,0;column;0,0;False;True;False;1,31699991226;True;0,868000030518
RHN1998w;game;2017-03-02-11-25-34;6,0;15,0;-100;1,0;3,0;0,0;2,0;row;0,0;False;False;False;1,24699997902;True;0,733000040054
RHN1998w;game;2017-03-02-11-25-34;6,0;16,0;-100;2,0;1,0;3,0;0,0;row;1,0;True;False;True;1,88400006294;True;0,832999944687
RHN1998w;game;2017-03-02-11-25-34;6,0;17,0;-100;3,0;2,0;0,0;1,0;column;0,0;False;False;False;1,0490000248;True;1,36199998856
RHN1998w;game;2017-03-02-11-25-34;6,0;18,0;-100;0,0;2,0;3,0;1,0;column;0,0;False;True;False;0,981999874115;True;1,00100016594
RHN1998w;game;2017-03-02-11-25-34;6,0;19,0;-100;2,0;1,0;3,0;0,0;row;0,0;True;False;True;0,914000034332;True;1,132999897
RHN1998w;game;2017-03-02-11-25-34;6,0;20,0;-100;0,0;2,0;1,0;3,0;row;0,0;True;False;True;0,917000055313;True;0,695999860764
RHN1998w;game;2017-03-02-11-25-34;6,0;21,0;-100;0,0;1,0;3,0;2,0;row;1,0;True;True;True;0,883000135422;True;1,02800011635
RHN1998w;game;2017-03-02-11-25-34;6,0;22,0;-100;3,0;2,0;0,0;1,0;row;1,0;True;True;True;0,882999897003;True;0,702000141144
RHN1998w;game;2017-03-02-11-25-34;6,0;23,0;-100;1,0;2,0;0,0;3,0;column;1,0;False;False;False;1,54800009727;True;0,532999992371
RHN1998w;game;2017-03-02-11-25-34;6,0;24,0;-100;3,0;2,0;1,0;0,0;column;1,0;True;True;True;1,31699991226;True;1,30100011826
RHN1998w;game;2017-03-02-11-25-34;6,0;25,0;-100;1,0;2,0;3,0;0,0;column;0,0;True;True;True;0,917000055313;True;1,492000103
RHN1998w;game;2017-03-02-11-25-34;6,0;26,0;-100;2,0;3,0;1,0;0,0;column;1,0;False;False;False;3,78299999237;True;0,930999994278
RHN1998w;game;2017-03-02-11-25-34;6,0;27,0;-100;1,0;2,0;3,0;0,0;row;1,0;True;True;True;0,948999881744;True;0,999000072479
RHN1998w;game;2017-03-02-11-25-34;6,0;28,0;-100;0,0;1,0;2,0;3,0;column;1,0;True;False;True;1,14900016785;True;1,33200001717
RHN1998w;game;2017-03-02-11-25-34;6,0;29,0;-100;1,0;3,0;2,0;0,0;row;1,0;False;True;False;1,55000019073;True;1,23099994659
RHN1998w;game;2017-03-02-11-25-34;6,0;30,0;-100;3,0;0,0;1,0;2,0;column;0,0;True;False;True;1,47799992561;True;1,29400014877
RHN1998w;game;2017-03-02-11-25-34;6,0;31,0;-100;2,0;0,0;1,0;3,0;column;0,0;True;True;True;0,983000040054;True;1,16400003433
RHN1998w;game;2017-03-02-11-25-34;6,0;32,0;-100;0,0;3,0;1,0;2,0;row;1,0;False;True;True;0,917999982834;False;0,569999933243
RHN1998w;game;2017-03-02-11-25-34;6,0;33,0;-100;0,0;2,0;1,0;3,0;column;0,0;True;True;True;0,983000040054;True;0,638000011444
RHN1998w;game;2017-03-02-11-25-34;6,0;34,0;-100;0,0;1,0;3,0;2,0;column;1,0;False;False;False;1,04999995232;True;0,631999969482
RHN1998w;game;2017-03-02-11-25-34;6,0;35,0;-100;3,0;0,0;2,0;1,0;column;0,0;False;True;False;1,25;True;0,997000217438
RHN1998w;game;2017-03-02-11-25-34;6,0;36,0;-100;1,0;2,0;3,0;0,0;column;1,0;False;True;True;0,982999801636;False;0,694000005722
RHN1998w;game;2017-03-02-11-25-34;6,0;37,0;-100;2,0;3,0;1,0;0,0;row;0,0;False;True;False;1,42300009727;True;0,970999956131
RHN1998w;game;2017-03-02-11-25-34;6,0;38,0;-100;2,0;0,0;3,0;1,0;column;0,0;False;False;False;1,01499986649;True;0,800999879837
RHN1998w;game;2017-03-02-11-25-34;6,0;39,0;-100;1,0;3,0;2,0;0,0;column;0,0;False;False;False;0,982000112534;True;1,26999998093
RHN1998w;game;2017-03-02-11-25-34;6,0;40,0;-100;1,0;2,0;3,0;0,0;row;0,0;True;False;False;1,1819999218;False;1,33299994469
RHN1998w;game;2017-03-02-11-25-34;6,0;41,0;-100;2,0;0,0;3,0;1,0;row;1,0;False;True;False;0,983000040054;True;0,93499994278
RHN1998w;game;2017-03-02-11-25-34;6,0;42,0;-100;3,0;1,0;0,0;2,0;column;0,0;False;False;True;1,17999982834;False;0,593999862671
RHN1998w;game;2017-03-02-11-25-34;6,0;43,0;-100;3,0;1,0;2,0;0,0;row;1,0;True;True;False;1,08399987221;False;1,03200006485
RHN1998w;game;2017-03-02-11-25-34;6,0;44,0;-100;2,0;0,0;1,0;3,0;column;0,0;False;True;False;0,850000143051;True;1,1930000782
RHN1998w;game;2017-03-02-11-25-34;6,0;45,0;-100;2,0;0,0;3,0;1,0;row;0,0;True;True;False;2,88199996948;False;1,47200012207
RHN1998w;game;2017-03-02-11-25-34;6,0;46,0;-100;2,0;1,0;3,0;0,0;column;1,0;True;False;True;0,849999904633;True;1,39999985695
RHN1998w;game;2017-03-02-11-25-34;6,0;47,0;-100;3,0;0,0;2,0;1,0;column;1,0;False;True;False;1,117000103;True;0,871000051498
RHN1998w;game;2017-03-02-11-25-34;6,0;48,0;-100;3,0;1,0;0,0;2,0;column;1,0;True;True;False;1,77999997139;False;0,59099984169
RHN1998w;game;2017-03-02-11-25-34;7,0;1,0;-100;2,0;3,0;1,0;0,0;row;0,0;True;True;True;1,45000004768;True;0,977999925613
RHN1998w;game;2017-03-02-11-25-34;7,0;2,0;-100;3,0;0,0;1,0;2,0;column;1,0;True;True;True;0,850000143051;True;0,868999958038
RHN1998w;game;2017-03-02-11-25-34;7,0;3,0;-100;0,0;3,0;2,0;1,0;column;0,0;True;True;True;1,0150001049;True;0,555999994278
RHN1998w;game;2017-03-02-11-25-34;7,0;4,0;-100;3,0;2,0;0,0;1,0;row;0,0;False;False;False;1,11600017548;True;1,26799988747
RHN1998w;game;2017-03-02-11-25-34;7,0;5,0;-100;0,0;1,0;2,0;3,0;column;0,0;True;True;True;0,883000135422;True;1,13499999046
RHN1998w;game;2017-03-02-11-25-34;7,0;6,0;-100;2,0;3,0;0,0;1,0;column;0,0;True;False;True;0,81500005722;True;1,25599980354
RHN1998w;game;2017-03-02-11-25-34;7,0;7,0;-100;0,0;1,0;3,0;2,0;column;0,0;False;False;False;0,949999809265;True;0,560000181198
RHN1998w;game;2017-03-02-11-25-34;7,0;8,0;-100;2,0;3,0;0,0;1,0;row;1,0;False;False;True;0,981999874115;False;1,42800021172
RHN1998w;game;2017-03-02-11-25-34;7,0;9,0;-100;0,0;2,0;1,0;3,0;column;1,0;False;True;True;1,0039999485;False;0,735000133514
RHN1998w;game;2017-03-02-11-25-34;7,0;10,0;-100;0,0;1,0;3,0;2,0;row;1,0;False;False;False;1,28400015831;True;1,23599982262
RHN1998w;game;2017-03-02-11-25-34;7,0;11,0;-100;2,0;3,0;0,0;1,0;column;0,0;False;True;False;1,11699986458;True;1,50300002098
RHN1998w;game;2017-03-02-11-25-34;7,0;12,0;-100;2,0;3,0;1,0;0,0;row;1,0;True;False;True;1,04999995232;True;0,736000061035
RHN1998w;game;2017-03-02-11-25-34;7,0;13,0;-100;0,0;3,0;2,0;1,0;column;1,0;False;False;False;1,01599979401;True;1,17100000381
RHN1998w;game;2017-03-02-11-25-34;7,0;14,0;-100;1,0;0,0;2,0;3,0;column;1,0;False;True;False;1,01699995995;True;1,30100011826
RHN1998w;game;2017-03-02-11-25-34;7,0;15,0;-100;2,0;1,0;0,0;3,0;column;1,0;True;True;True;1,14800000191;True;0,996999979019
RHN1998w;game;2017-03-02-11-25-34;7,0;16,0;-100;2,0;3,0;0,0;1,0;row;0,0;True;False;False;1,18300008774;False;1,43499994278
RHN1998w;game;2017-03-02-11-25-34;7,0;17,0;-100;2,0;0,0;1,0;3,0;column;1,0;False;False;False;1,55100011826;True;0,570000171661
RHN1998w;game;2017-03-02-11-25-34;7,0;18,0;-100;1,0;3,0;0,0;2,0;column;0,0;False;False;False;1,01699995995;True;1,03900003433
RHN1998w;game;2017-03-02-11-25-34;7,0;19,0;-100;2,0;3,0;1,0;0,0;column;0,0;True;False;True;0,815999984741;True;0,832000017166
RHN1998w;game;2017-03-02-11-25-34;7,0;20,0;-100;2,0;3,0;0,0;1,0;column;1,0;True;True;True;1,14899992943;True;0,828999996185
RHN1998w;game;2017-03-02-11-25-34;7,0;21,0;-100;1,0;3,0;2,0;0,0;row;0,0;False;True;False;1,0490000248;True;1,10199999809
RHN1998w;game;2017-03-02-11-25-34;7,0;22,0;-100;3,0;1,0;2,0;0,0;row;0,0;True;True;True;1,34899997711;True;1,10500001907
RHN1998w;game;2017-03-02-11-25-34;7,0;23,0;-100;0,0;2,0;3,0;1,0;row;1,0;False;False;False;1,51600003242;True;0,829999923706
RHN1998w;game;2017-03-02-11-25-34;7,0;24,0;-100;2,0;3,0;1,0;0,0;row;1,0;False;False;False;0,949000120163;True;1,09699988365
RHN1998w;game;2017-03-02-11-25-34;7,0;25,0;-100;0,0;1,0;3,0;2,0;row;0,0;False;True;False;1,11599993706;True;1,03299999237
RHN1998w;game;2017-03-02-11-25-34;7,0;26,0;-100;2,0;0,0;3,0;1,0;column;1,0;True;True;True;1,48300004005;True;1,23199987411
RHN1998w;game;2017-03-02-11-25-34;7,0;27,0;-100;2,0;1,0;0,0;3,0;row;1,0;False;False;False;0,915999889374;True;0,9359998703
RHN1998w;game;2017-03-02-11-25-34;7,0;28,0;-100;2,0;1,0;0,0;3,0;row;0,0;False;False;False;1,18400001526;True;0,628999948502
RHN1998w;game;2017-03-02-11-25-34;7,0;29,0;-100;2,0;1,0;3,0;0,0;row;0,0;False;True;False;1,15000009537;True;1,39999985695
RHN1998w;game;2017-03-02-11-25-34;7,0;30,0;-100;3,0;0,0;2,0;1,0;row;1,0;True;False;True;1,24900007248;True;1,40000009537
RHN1998w;game;2017-03-02-11-25-34;7,0;31,0;-100;0,0;2,0;1,0;3,0;row;1,0;True;True;True;1,31699991226;True;0,99799990654
RHN1998w;game;2017-03-02-11-25-34;7,0;32,0;-100;0,0;1,0;2,0;3,0;row;1,0;False;True;False;1,28399991989;True;0,736000061035
RHN1998w;game;2017-03-02-11-25-34;7,0;33,0;-100;3,0;1,0;0,0;2,0;column;0,0;True;True;True;0,850000143051;True;1,2990000248
RHN1998w;game;2017-03-02-11-25-34;7,0;34,0;-100;0,0;1,0;3,0;2,0;row;0,0;True;True;True;0,949999809265;True;0,969999790192
RHN1998w;game;2017-03-02-11-25-34;7,0;35,0;-100;2,0;1,0;3,0;0,0;column;1,0;False;False;False;1,58400011063;True;0,865999937057
RHN1998w;game;2017-03-02-11-25-34;7,0;36,0;-100;0,0;2,0;1,0;3,0;row;1,0;False;True;False;1,38199996948;True;1,03600001335
RHN1998w;game;2017-03-02-11-25-34;7,0;37,0;-100;3,0;1,0;2,0;0,0;row;0,0;False;True;False;1,34900021553;True;1,09500002861
RHN1998w;game;2017-03-02-11-25-34;7,0;38,0;-100;0,0;3,0;1,0;2,0;row;0,0;False;False;False;1,78400015831;True;0,999000072479
RHN1998w;game;2017-03-02-11-25-34;7,0;39,0;-100;0,0;1,0;2,0;3,0;row;0,0;True;True;True;2,08299994469;True;1,22599983215
RHN1998w;game;2017-03-02-11-25-34;7,0;40,0;-100;1,0;3,0;0,0;2,0;column;1,0;False;True;False;1,71600008011;True;1,36500000954
RHN1998w;game;2017-03-02-11-25-34;7,0;41,0;-100;0,0;2,0;3,0;1,0;row;0,0;False;True;False;1,14800000191;True;0,601000070572
RHN1998w;game;2017-03-02-11-25-34;7,0;42,0;-100;0,0;2,0;1,0;3,0;row;0,0;False;False;False;1,64800000191;True;1,23799991608
RHN1998w;game;2017-03-02-11-25-34;7,0;43,0;-100;0,0;3,0;1,0;2,0;column;1,0;False;False;False;1,117000103;True;1,33399987221
RHN1998w;game;2017-03-02-11-25-34;7,0;44,0;-100;2,0;3,0;1,0;0,0;column;0,0;False;False;False;1,34899997711;True;0,795000076294
RHN1998w;game;2017-03-02-11-25-34;7,0;45,0;-100;0,0;2,0;3,0;1,0;column;0,0;True;False;True;0,883000135422;True;0,557000160217
RHN1998w;game;2017-03-02-11-25-34;7,0;46,0;-100;3,0;2,0;1,0;0,0;row;1,0;False;True;False;1,58500003815;True;1,3029999733
RHN1998w;game;2017-03-02-11-25-34;7,0;47,0;-100;2,0;1,0;0,0;3,0;row;1,0;True;True;True;0,950000047684;True;0,700000047684
RHN1998w;game;2017-03-02-11-25-34;7,0;48,0;-100;3,0;2,0;1,0;0,0;row;0,0;True;False;True;1,01600003242;True;0,733000040054
RHN1998w;game;2017-03-02-11-25-34;8,0;1,0;1000;1,0;2,0;3,0;0,0;column;0,0;True;True;False;1,06699991226;False;1,16100001335
RHN1998w;game;2017-03-02-11-25-34;8,0;2,0;1000;2,0;0,0;3,0;1,0;row;1,0;False;False;False;1,46700000763;True;1,49799990654
RHN1998w;game;2017-03-02-11-25-34;8,0;3,0;1000;3,0;0,0;1,0;2,0;column;1,0;False;False;False;1,46700000763;True;1,10299992561
RHN1998w;game;2017-03-02-11-25-34;8,0;4,0;1000;0,0;2,0;1,0;3,0;column;1,0;True;False;True;1,39999985695;True;0,833999872208
RHN1998w;game;2017-03-02-11-25-34;8,0;5,0;1000;1,0;2,0;0,0;3,0;row;0,0;False;True;False;1,46699976921;True;0,730999946594
RHN1998w;game;2017-03-02-11-25-34;8,0;6,0;1000;3,0;1,0;2,0;0,0;column;0,0;True;True;True;1,5;True;1,00099992752
RHN1998w;game;2017-03-02-11-25-34;8,0;7,0;1000;0,0;1,0;2,0;3,0;column;1,0;False;True;True;1,5;False;0,632000207901
RHN1998w;game;2017-03-02-11-25-34;8,0;8,0;1000;1,0;2,0;3,0;0,0;column;1,0;False;True;False;1,86599993706;True;0,733999967575
RHN1998w;game;2017-03-02-11-25-34;8,0;9,0;1000;0,0;1,0;2,0;3,0;row;0,0;False;False;False;1,46599984169;True;0,628999948502
RHN1998w;game;2017-03-02-11-25-34;8,0;10,0;1000;0,0;1,0;3,0;2,0;row;0,0;True;False;True;1,20000004768;True;1,26300001144
RHN1998w;game;2017-03-02-11-25-34;8,0;11,0;1000;0,0;3,0;1,0;2,0;column;1,0;False;True;False;1,13300013542;True;0,589999914169
RHN1998w;game;2017-03-02-11-25-34;8,0;12,0;1000;3,0;1,0;0,0;2,0;column;0,0;True;False;True;0,766000032425;True;1,23300004005
RHN1998w;game;2017-03-02-11-25-34;8,0;13,0;1000;2,0;0,0;3,0;1,0;column;0,0;False;True;True;0,667000055313;False;0,532999992371
RHN1998w;game;2017-03-02-11-25-34;8,0;14,0;1000;3,0;2,0;1,0;0,0;column;0,0;True;True;True;1,36699986458;True;1,22699999809
RHN1998w;game;2017-03-02-11-25-34;8,0;15,0;1000;2,0;1,0;3,0;0,0;column;1,0;False;True;False;1,53400015831;True;0,90499997139
RHN1998w;game;2017-03-02-11-25-34;8,0;16,0;1000;3,0;1,0;2,0;0,0;row;1,0;True;True;True;1,16599988937;True;1,30400013924
RHN1998w;game;2017-03-02-11-25-34;8,0;17,0;1000;3,0;2,0;0,0;1,0;row;1,0;False;True;False;1,03399991989;True;0,59700012207
RHN1998w;game;2017-03-02-11-25-34;8,0;18,0;1000;1,0;2,0;3,0;0,0;column;1,0;True;True;False;1,23300004005;False;0,833000183105
RHN1998w;game;2017-03-02-11-25-34;8,0;19,0;1000;1,0;2,0;0,0;3,0;column;1,0;True;True;True;1,0;True;0,624000072479
RHN1998w;game;2017-03-02-11-25-34;8,0;20,0;1000;3,0;1,0;0,0;2,0;row;0,0;False;True;False;1,16700005531;True;0,59500002861
RHN1998w;game;2017-03-02-11-25-34;8,0;21,0;1000;2,0;3,0;0,0;1,0;column;0,0;True;False;False;1,46799993515;False;1,16900014877
RHN1998w;game;2017-03-02-11-25-34;8,0;22,0;1000;3,0;1,0;2,0;0,0;column;1,0;False;False;False;1,46700000763;True;0,602999925613
RHN1998w;game;2017-03-02-11-25-34;8,0;23,0;1000;3,0;1,0;0,0;2,0;column;1,0;False;True;True;1,29999995232;False;0,565999984741
RHN1998w;game;2017-03-02-11-25-34;8,0;24,0;1000;1,0;2,0;3,0;0,0;row;1,0;False;False;False;0,966000080109;True;1,16799998283
RHN1998w;game;2017-03-02-11-25-34;8,0;25,0;1000;2,0;1,0;0,0;3,0;row;1,0;False;False;True;0,963999986649;False;0,536999940872
RHN1998w;game;2017-03-02-11-25-34;8,0;26,0;1000;1,0;3,0;0,0;2,0;column;0,0;False;False;False;1,20000004768;True;0,96799993515
RHN1998w;game;2017-03-02-11-25-34;8,0;27,0;1000;0,0;1,0;2,0;3,0;row;0,0;True;False;True;1,10100007057;True;1,22799992561
RHN1998w;game;2017-03-02-11-25-34;8,0;28,0;1000;1,0;3,0;0,0;2,0;row;1,0;False;True;False;1,39999985695;True;1,06299996376
RHN1998w;game;2017-03-02-11-25-34;8,0;29,0;1000;1,0;3,0;0,0;2,0;column;1,0;False;False;False;0,967000007629;True;0,564999818802
RHN1998w;game;2017-03-02-11-25-34;8,0;30,0;1000;3,0;0,0;2,0;1,0;row;0,0;True;False;False;1,13400006294;False;1,39800000191
RHN1998w;game;2017-03-02-11-25-34;8,0;31,0;1000;0,0;3,0;2,0;1,0;row;0,0;False;False;False;1,06700015068;True;0,662999868393
RHN1998w;game;2017-03-02-11-25-34;8,0;32,0;1000;2,0;1,0;3,0;0,0;column;0,0;False;False;False;1,33299994469;True;1,33500003815
RHN1998w;game;2017-03-02-11-25-34;8,0;33,0;1000;1,0;0,0;3,0;2,0;row;1,0;False;False;False;0,832999944687;True;0,638999938965
RHN1998w;game;2017-03-02-11-25-34;8,0;34,0;1000;0,0;1,0;2,0;3,0;row;1,0;False;True;False;1,79999995232;True;1,41199994087
RHN1998w;game;2017-03-02-11-25-34;8,0;35,0;1000;1,0;3,0;2,0;0,0;column;0,0;False;True;False;0,999000072479;True;1,42899990082
RHN1998w;game;2017-03-02-11-25-34;8,0;36,0;1000;3,0;0,0;1,0;2,0;column;0,0;False;False;False;1,70000004768;True;1,10000014305
RHN1998w;game;2017-03-02-11-25-34;8,0;37,0;1000;2,0;1,0;0,0;3,0;column;1,0;True;False;False;1,632999897;False;1,4929997921
RHN1998w;game;2017-03-02-11-25-34;8,0;38,0;1000;0,0;2,0;3,0;1,0;column;1,0;False;True;False;1,70000004768;True;1,19799995422
RHN1998w;game;2017-03-02-11-25-34;8,0;39,0;1000;1,0;0,0;3,0;2,0;row;1,0;True;True;True;1,06700015068;True;1,36400008202
RHN1998w;game;2017-03-02-11-25-34;8,0;40,0;1000;3,0;2,0;0,0;1,0;row;0,0;True;True;True;0,733000040054;True;0,87099981308
RHN1998w;game;2017-03-02-11-25-34;8,0;41,0;1000;1,0;0,0;3,0;2,0;row;0,0;True;True;True;0,766000032425;True;1,02699995041
RHN1998w;game;2017-03-02-11-25-34;8,0;42,0;1000;0,0;2,0;3,0;1,0;column;0,0;False;False;False;0,934000015259;True;1,12299990654
RHN1998w;game;2017-03-02-11-25-34;8,0;43,0;1000;3,0;1,0;0,0;2,0;column;0,0;False;True;False;0,832999944687;True;1,45799994469
RHN1998w;game;2017-03-02-11-25-34;8,0;44,0;1000;2,0;3,0;1,0;0,0;column;0,0;True;True;True;1,66799998283;True;0,97000002861
RHN1998w;game;2017-03-02-11-25-34;8,0;45,0;1000;0,0;2,0;3,0;1,0;row;1,0;True;False;False;1,13399982452;False;1,4319999218
RHN1998w;game;2017-03-02-11-25-34;8,0;46,0;1000;2,0;3,0;1,0;0,0;row;0,0;True;True;True;0,667000055313;True;0,769000053406
RHN1998w;game;2017-03-02-11-25-34;8,0;47,0;1000;2,0;0,0;1,0;3,0;column;1,0;True;True;False;1,0;False;1,09899997711
RHN1998w;game;2017-03-02-11-25-34;8,0;48,0;1000;1,0;3,0;0,0;2,0;row;0,0;False;False;False;0,966000080109;True;0,932000160217
RHN1998w;game;2017-03-02-11-25-34;9,0;1,0;100;3,0;2,0;0,0;1,0;column;1,0;True;False;False;1,03299999237;False;0,75
RHN1998w;game;2017-03-02-11-25-34;9,0;2,0;100;1,0;0,0;3,0;2,0;column;0,0;True;True;True;1,19800019264;True;0,97100019455
RHN1998w;game;2017-03-02-11-25-34;9,0;3,0;100;1,0;3,0;0,0;2,0;row;1,0;False;True;False;1,0;True;1,46699976921
RHN1998w;game;2017-03-02-11-25-34;9,0;4,0;100;3,0;2,0;1,0;0,0;column;1,0;True;True;False;1,30100011826;False;1,4960000515
RHN1998w;game;2017-03-02-11-25-34;9,0;5,0;100;3,0;0,0;1,0;2,0;column;1,0;False;False;False;0,967000007629;True;0,735999822617
RHN1998w;game;2017-03-02-11-25-34;9,0;6,0;100;3,0;2,0;1,0;0,0;row;1,0;False;True;False;1,0;True;0,700999975204
RHN1998w;game;2017-03-02-11-25-34;9,0;7,0;100;3,0;0,0;1,0;2,0;row;0,0;True;True;True;2,40000009537;True;0,929999828339
RHN1998w;game;2017-03-02-11-25-34;9,0;8,0;100;1,0;0,0;2,0;3,0;column;1,0;True;False;True;0,967000007629;True;1,16900014877
RHN1998w;game;2017-03-02-11-25-34;9,0;9,0;100;2,0;3,0;0,0;1,0;row;0,0;True;True;True;1,56700015068;True;1,50199985504
RHN1998w;game;2017-03-02-11-25-34;9,0;10,0;100;2,0;1,0;3,0;0,0;row;1,0;False;False;True;1,33400011063;False;1,19999980927
RHN1998w;game;2017-03-02-11-25-34;9,0;11,0;100;0,0;1,0;2,0;3,0;column;0,0;True;True;True;1,83299994469;True;0,835000038147
RHN1998w;game;2017-03-02-11-25-34;9,0;12,0;100;1,0;3,0;2,0;0,0;row;0,0;True;True;False;1,70000004768;False;1,36199998856
RHN1998w;game;2017-03-02-11-25-34;9,0;13,0;100;3,0;1,0;2,0;0,0;column;0,0;True;True;False;0,928999900818;False;0,959999799728
RHN1998w;game;2017-03-02-11-25-34;9,0;14,0;100;2,0;3,0;0,0;1,0;column;0,0;False;True;True;1,16700005531;False;1,32899999619
RHN1998w;game;2017-03-02-11-25-34;9,0;15,0;100;2,0;0,0;1,0;3,0;column;0,0;True;False;True;1,0;True;0,669000148773
RHN1998w;game;2017-03-02-11-25-34;9,0;16,0;100;3,0;2,0;1,0;0,0;column;0,0;True;False;True;0,898000001907;True;1,2990000248
RHN1998w;game;2017-03-02-11-25-34;9,0;17,0;100;2,0;0,0;3,0;1,0;row;0,0;False;True;True;1,39999985695;False;0,796999931335
RHN1998w;game;2017-03-02-11-25-34;9,0;18,0;100;0,0;3,0;2,0;1,0;column;1,0;False;True;False;1,43300008774;True;1,46200013161
RHN1998w;game;2017-03-02-11-25-34;9,0;19,0;100;2,0;3,0;0,0;1,0;column;1,0;False;True;False;1,26699995995;True;0,5640001297
RHN1998w;game;2017-03-02-11-25-34;9,0;20,0;100;0,0;2,0;3,0;1,0;column;0,0;False;True;True;1,06699991226;False;1,39100003242
RHN1998w;game;2017-03-02-11-25-34;9,0;21,0;100;3,0;0,0;1,0;2,0;column;0,0;False;True;True;0,84500002861;False;0,967000007629
RHN1998w;game;2017-03-02-11-25-34;9,0;22,0;100;0,0;2,0;3,0;1,0;column;0,0;True;True;False;1,43300008774;False;1,2009999752
RHN1998w;game;2017-03-02-11-25-34;9,0;23,0;100;1,0;3,0;0,0;2,0;row;1,0;True;True;True;0,934000015259;True;0,699999809265
RHN1998w;game;2017-03-02-11-25-34;9,0;24,0;100;1,0;0,0;3,0;2,0;column;1,0;True;True;True;0,901000022888;True;1,30100011826
RHN1998w;game;2017-03-02-11-25-34;9,0;25,0;100;2,0;3,0;1,0;0,0;column;1,0;True;True;True;1,13100004196;True;0,596999883652
RHN1998w;game;2017-03-02-11-25-34;9,0;26,0;100;3,0;0,0;1,0;2,0;row;1,0;False;True;True;1,09999990463;False;0,968000173569
RHN1998w;game;2017-03-02-11-25-34;9,0;27,0;100;1,0;3,0;0,0;2,0;row;0,0;True;True;True;2,20000004768;True;0,802999973297
RHN1998w;game;2017-03-02-11-25-34;9,0;28,0;100;3,0;2,0;0,0;1,0;row;1,0;False;True;True;1,29999995232;False;0,528000116348
RHN1998w;game;2017-03-02-11-25-34;9,0;29,0;100;1,0;2,0;0,0;3,0;row;1,0;False;True;False;1,43300008774;True;1,30400013924
RHN1998w;game;2017-03-02-11-25-34;9,0;30,0;100;1,0;0,0;3,0;2,0;column;0,0;False;False;False;1,46600008011;True;0,727999925613
RHN1998w;game;2017-03-02-11-25-34;9,0;31,0;100;2,0;1,0;0,0;3,0;column;1,0;False;False;False;1,46799993515;True;1,0720000267
RHN1998w;game;2017-03-02-11-25-34;9,0;32,0;100;3,0;2,0;1,0;0,0;column;0,0;False;True;False;0,933000087738;True;1,39899992943
RHN1998w;game;2017-03-02-11-25-34;9,0;33,0;100;2,0;1,0;0,0;3,0;row;0,0;True;False;True;0,832999944687;True;0,932000160217
RHN1998w;game;2017-03-02-11-25-34;9,0;34,0;100;3,0;1,0;2,0;0,0;row;0,0;False;False;False;1,53299999237;True;0,990000009537
RHN1998w;game;2017-03-02-11-25-34;9,0;35,0;100;2,0;0,0;3,0;1,0;column;1,0;False;True;False;1,70100021362;True;1,23799991608
RHN1998w;game;2017-03-02-11-25-34;9,0;36,0;100;1,0;2,0;3,0;0,0;row;1,0;True;False;True;1,29999995232;True;0,702000141144
RHN1998w;game;2017-03-02-11-25-34;9,0;37,0;100;2,0;1,0;3,0;0,0;column;1,0;True;True;True;1,26699995995;True;0,5640001297
RHN1998w;game;2017-03-02-11-25-34;9,0;38,0;100;2,0;1,0;0,0;3,0;row;1,0;True;False;True;1,03299999237;True;0,736000061035
RHN1998w;game;2017-03-02-11-25-34;9,0;39,0;100;3,0;0,0;2,0;1,0;row;1,0;False;True;False;1,06699991226;True;0,989000082016
RHN1998w;game;2017-03-02-11-25-34;9,0;40,0;100;0,0;3,0;2,0;1,0;row;1,0;True;False;True;1,06699991226;True;1,02600002289
RHN1998w;game;2017-03-02-11-25-34;9,0;41,0;100;1,0;2,0;0,0;3,0;row;0,0;False;False;False;1,73199987411;True;1,3029999733
RHN1998w;game;2017-03-02-11-25-34;9,0;42,0;100;3,0;2,0;0,0;1,0;column;1,0;False;False;False;1,49900007248;True;1,19799995422
RHN1998w;game;2017-03-02-11-25-34;9,0;43,0;100;2,0;3,0;1,0;0,0;row;1,0;True;True;True;1,56700015068;True;0,865000009537
RHN1998w;game;2017-03-02-11-25-34;9,0;44,0;100;0,0;1,0;3,0;2,0;column;1,0;False;True;False;1,36500000954;True;0,894000053406
RHN1998w;game;2017-03-02-11-25-34;9,0;45,0;100;3,0;0,0;1,0;2,0;column;1,0;True;False;True;1,26699995995;True;1,16899991035
RHN1998w;game;2017-03-02-11-25-34;9,0;46,0;100;3,0;1,0;2,0;0,0;column;0,0;False;True;True;1,36800003052;False;1,29699993134
RHN1998w;game;2017-03-02-11-25-34;9,0;47,0;100;1,0;0,0;2,0;3,0;column;0,0;True;False;True;0,700000047684;True;0,803999900818
RHN1998w;game;2017-03-02-11-25-34;9,0;48,0;100;2,0;1,0;3,0;0,0;column;0,0;True;True;True;1,53099989891;True;0,765000104904
RHN1998w;game;2017-03-02-11-25-34;10,0;1,0;-100;1,0;3,0;0,0;2,0;row;1,0;False;True;False;1,1850001812;True;0,986999988556
RHN1998w;game;2017-03-02-11-25-34;10,0;2,0;-100;3,0;0,0;1,0;2,0;row;1,0;False;True;False;1,25;True;0,97000002861
RHN1998w;game;2017-03-02-11-25-34;10,0;3,0;-100;0,0;2,0;3,0;1,0;column;1,0;True;False;True;1,117000103;True;1,00300002098
RHN1998w;game;2017-03-02-11-25-34;10,0;4,0;-100;1,0;0,0;3,0;2,0;row;0,0;False;False;False;1,18400001526;True;0,595999956131
RHN1998w;game;2017-03-02-11-25-34;10,0;5,0;-100;3,0;0,0;1,0;2,0;row;1,0;True;True;True;1,18300008774;True;0,660000085831
RHN1998w;game;2017-03-02-11-25-34;10,0;6,0;-100;1,0;3,0;2,0;0,0;column;0,0;True;True;True;0,947999954224;True;0,662999868393
RHN1998w;game;2017-03-02-11-25-34;10,0;7,0;-100;3,0;0,0;2,0;1,0;column;1,0;True;True;True;0,815999984741;True;1,39499998093
RHN1998w;game;2017-03-02-11-25-34;10,0;8,0;-100;1,0;2,0;3,0;0,0;row;0,0;False;True;False;1,11500000954;True;0,688999891281
RHN1998w;game;2017-03-02-11-25-34;10,0;9,0;-100;2,0;0,0;1,0;3,0;row;1,0;True;True;True;0,782999992371;True;0,664999961853
RHN1998w;game;2017-03-02-11-25-34;10,0;10,0;-100;3,0;1,0;2,0;0,0;row;1,0;False;True;False;1,28299999237;True;1,19499993324
RHN1998w;game;2017-03-02-11-25-34;10,0;11,0;-100;0,0;2,0;3,0;1,0;row;0,0;True;True;True;1,31699991226;True;1,13700008392
RHN1998w;game;2017-03-02-11-25-34;10,0;12,0;-100;0,0;3,0;2,0;1,0;row;0,0;True;True;True;1,04999995232;True;0,605000019073
RHN1998w;game;2017-03-02-11-25-34;10,0;13,0;-100;2,0;0,0;3,0;1,0;row;1,0;True;False;True;0,948999881744;True;1,39700007439
RHN1998w;game;2017-03-02-11-25-34;10,0;14,0;-100;2,0;3,0;1,0;0,0;column;1,0;True;False;False;1,18300008774;False;0,696000099182
RHN1998w;game;2017-03-02-11-25-34;10,0;15,0;-100;1,0;0,0;3,0;2,0;column;1,0;True;True;True;1,18099999428;True;1,0680000782
RHN1998w;game;2017-03-02-11-25-34;10,0;16,0;-100;3,0;2,0;0,0;1,0;column;0,0;True;False;True;0,717000007629;True;0,763000011444
RHN1998w;game;2017-03-02-11-25-34;10,0;17,0;-100;2,0;0,0;1,0;3,0;row;0,0;True;False;True;0,782999992371;True;1,132999897
RHN1998w;game;2017-03-02-11-25-34;10,0;18,0;-100;1,0;2,0;3,0;0,0;row;1,0;False;True;False;1,21499991417;True;0,868000030518
RHN1998w;game;2017-03-02-11-25-34;10,0;19,0;-100;1,0;2,0;0,0;3,0;column;1,0;True;False;True;0,916000127792;True;1,49699997902
RHN1998w;game;2017-03-02-11-25-34;10,0;20,0;-100;3,0;1,0;2,0;0,0;column;0,0;False;False;False;0,947999954224;True;1,31300020218
RHN1998w;game;2017-03-02-11-25-34;10,0;21,0;-100;2,0;1,0;0,0;3,0;column;0,0;False;True;False;1,04999995232;True;0,673000097275
RHN1998w;game;2017-03-02-11-25-34;10,0;22,0;-100;1,0;3,0;2,0;0,0;row;0,0;True;False;True;1,21799993515;True;0,571000099182
RHN1998w;game;2017-03-02-11-25-34;10,0;23,0;-100;2,0;1,0;3,0;0,0;row;1,0;False;False;False;1,28399991989;True;1,03299999237
RHN1998w;game;2017-03-02-11-25-34;10,0;24,0;-100;2,0;3,0;0,0;1,0;row;0,0;False;True;False;1,25100016594;True;0,568000078201
RHN1998w;game;2017-03-02-11-25-34;10,0;25,0;-100;1,0;0,0;3,0;2,0;column;0,0;True;False;True;0,948999881744;True;1,03599977493
RHN1998w;game;2017-03-02-11-25-34;10,0;26,0;-100;1,0;3,0;0,0;2,0;column;0,0;True;True;True;0,782999992371;True;0,594000101089
RHN1998w;game;2017-03-02-11-25-34;10,0;27,0;-100;0,0;3,0;1,0;2,0;column;0,0;False;True;False;1,01800012589;True;1,36299991608
RHN1998w;game;2017-03-02-11-25-34;10,0;28,0;-100;1,0;3,0;0,0;2,0;column;1,0;True;True;True;0,817000150681;True;1,05999994278
RHN1998w;game;2017-03-02-11-25-34;10,0;29,0;-100;1,0;0,0;2,0;3,0;row;0,0;False;True;False;1,15000009537;True;0,965000152588
RHN1998w;game;2017-03-02-11-25-34;10,0;30,0;-100;1,0;0,0;3,0;2,0;row;1,0;False;False;False;1,21500015259;True;0,59299993515
RHN1998w;game;2017-03-02-11-25-34;10,0;31,0;-100;3,0;2,0;0,0;1,0;column;1,0;True;True;True;0,983999967575;True;1,40400004387
RHN1998w;game;2017-03-02-11-25-34;10,0;32,0;-100;3,0;1,0;0,0;2,0;row;1,0;True;False;False;1,45000004768;False;0,694000005722
RHN1998w;game;2017-03-02-11-25-34;10,0;33,0;-100;0,0;2,0;3,0;1,0;row;1,0;True;False;True;1,21599984169;True;1,09999990463
RHN1998w;game;2017-03-02-11-25-34;10,0;34,0;-100;3,0;1,0;0,0;2,0;row;1,0;False;True;False;1,61500000954;True;1,27099990845
RHN1998w;game;2017-03-02-11-25-34;10,0;35,0;-100;1,0;3,0;2,0;0,0;column;1,0;False;False;False;1,06699991226;True;1,36400008202
RHN1998w;game;2017-03-02-11-25-34;10,0;36,0;-100;3,0;1,0;0,0;2,0;row;0,0;True;True;True;1,41799998283;True;0,796000003815
RHN1998w;game;2017-03-02-11-25-34;10,0;37,0;-100;3,0;0,0;2,0;1,0;row;0,0;False;False;False;1,0150001049;True;0,733000040054
RHN1998w;game;2017-03-02-11-25-34;10,0;38,0;-100;0,0;1,0;2,0;3,0;row;1,0;True;True;True;0,817000150681;True;1,23300004005
RHN1998w;game;2017-03-02-11-25-34;10,0;39,0;-100;0,0;3,0;1,0;2,0;row;1,0;True;True;True;0,948999881744;True;1,29600000381
RHN1998w;game;2017-03-02-11-25-34;10,0;40,0;-100;1,0;0,0;3,0;2,0;row;1,0;True;False;True;1,05099987984;True;1,22600007057
RHN1998w;game;2017-03-02-11-25-34;10,0;41,0;-100;1,0;0,0;2,0;3,0;row;0,0;True;False;False;1,41400003433;False;0,697999954224
RHN1998w;game;2017-03-02-11-25-34;10,0;42,0;-100;3,0;2,0;0,0;1,0;row;0,0;True;False;True;0,849999904633;True;0,802999973297
RHN1998w;game;2017-03-02-11-25-34;10,0;43,0;-100;0,0;1,0;3,0;2,0;column;1,0;True;True;True;0,680999994278;True;0,72000002861
RHN1998w;game;2017-03-02-11-25-34;10,0;44,0;-100;3,0;1,0;0,0;2,0;column;1,0;False;False;False;0,883000135422;True;0,6890001297
RHN1998w;game;2017-03-02-11-25-34;10,0;45,0;-100;3,0;2,0;1,0;0,0;column;0,0;True;True;False;0,948999881744;False;1,43099999428
RHN1998w;game;2017-03-02-11-25-34;10,0;46,0;-100;3,0;0,0;2,0;1,0;row;0,0;True;False;True;0,848999977112;True;1,06200003624
RHN1998w;game;2017-03-02-11-25-34;10,0;47,0;-100;3,0;1,0;2,0;0,0;column;1,0;True;True;True;1,04999995232;True;0,757999897003
RHN1998w;game;2017-03-02-11-25-34;10,0;48,0;-100;3,0;0,0;1,0;2,0;column;0,0;False;True;False;1,04999995232;True;0,700000047684
RHN1998w;game;2017-03-02-11-25-34;11,0;1,0;100;0,0;1,0;3,0;2,0;column;1,0;True;True;True;0,96599984169;True;1,02699995041
RHN1998w;game;2017-03-02-11-25-34;11,0;2,0;100;0,0;3,0;1,0;2,0;column;0,0;True;False;True;0,929999828339;True;1,02900004387
RHN1998w;game;2017-03-02-11-25-34;11,0;3,0;100;3,0;1,0;2,0;0,0;column;1,0;True;True;True;0,900000095367;True;0,932000160217
RHN1998w;game;2017-03-02-11-25-34;11,0;4,0;100;2,0;1,0;3,0;0,0;row;0,0;True;True;True;1,33299994469;True;1,12700009346
RHN1998w;game;2017-03-02-11-25-34;11,0;5,0;100;0,0;1,0;3,0;2,0;row;1,0;False;True;False;1,56599998474;True;1,4359998703
RHN1998w;game;2017-03-02-11-25-34;11,0;6,0;100;3,0;1,0;2,0;0,0;column;1,0;False;True;False;1,2009999752;True;0,664999961853
RHN1998w;game;2017-03-02-11-25-34;11,0;7,0;100;2,0;3,0;0,0;1,0;column;0,0;True;True;True;0,966000080109;True;0,963000059128
RHN1998w;game;2017-03-02-11-25-34;11,0;8,0;100;0,0;1,0;3,0;2,0;column;0,0;True;True;True;1,367000103;True;1,49499988556
RHN1998w;game;2017-03-02-11-25-34;11,0;9,0;100;2,0;0,0;3,0;1,0;column;1,0;True;False;True;1,13399982452;True;1,34000015259
RHN1998w;game;2017-03-02-11-25-34;11,0;10,0;100;0,0;3,0;2,0;1,0;column;0,0;True;True;True;1,00099992752;True;1,40199995041
RHN1998w;game;2017-03-02-11-25-34;11,0;11,0;100;0,0;2,0;1,0;3,0;column;0,0;True;False;True;0,700000047684;True;1,3259999752
RHN1998w;game;2017-03-02-11-25-34;11,0;12,0;100;1,0;3,0;0,0;2,0;row;0,0;False;True;False;1,43099999428;True;1,23000001907
RHN1998w;game;2017-03-02-11-25-34;11,0;13,0;100;0,0;3,0;2,0;1,0;row;0,0;False;False;False;1,43299984932;True;1,0680000782
RHN1998w;game;2017-03-02-11-25-34;11,0;14,0;100;0,0;1,0;2,0;3,0;column;1,0;False;False;False;1,03400015831;True;0,796000003815
RHN1998w;game;2017-03-02-11-25-34;11,0;15,0;100;3,0;0,0;2,0;1,0;column;0,0;True;False;True;0,933000087738;True;0,55999994278
RHN1998w;game;2017-03-02-11-25-34;11,0;16,0;100;1,0;2,0;3,0;0,0;column;0,0;True;True;True;1,367000103;True;0,966000080109
RHN1998w;game;2017-03-02-11-25-34;11,0;17,0;100;3,0;2,0;1,0;0,0;row;1,0;True;True;False;1,73299980164;False;1,00200009346
RHN1998w;game;2017-03-02-11-25-34;11,0;18,0;100;2,0;0,0;3,0;1,0;row;1,0;False;True;False;2,36800003052;True;0,657999992371
RHN1998w;game;2017-03-02-11-25-34;11,0;19,0;100;3,0;2,0;1,0;0,0;column;1,0;False;False;False;1,367000103;True;1,0680000782
RHN1998w;game;2017-03-02-11-25-34;11,0;20,0;100;3,0;0,0;2,0;1,0;row;0,0;False;False;False;1,03399991989;True;1,30500006676
RHN1998w;game;2017-03-02-11-25-34;11,0;21,0;100;1,0;0,0;2,0;3,0;row;0,0;False;True;False;0,833000183105;True;1,08899998665
RHN1998w;game;2017-03-02-11-25-34;11,0;22,0;100;3,0;1,0;0,0;2,0;row;1,0;True;False;False;2,20000004768;False;1,19199991226
RHN1998w;game;2017-03-02-11-25-34;11,0;23,0;100;3,0;0,0;1,0;2,0;row;1,0;True;False;True;0,900000095367;True;0,538999795914
RHN1998w;game;2017-03-02-11-25-34;11,0;24,0;100;2,0;1,0;3,0;0,0;row;0,0;False;True;False;1,70000004768;True;1,13199996948
RHN1998w;game;2017-03-02-11-25-34;11,0;25,0;100;2,0;0,0;3,0;1,0;row;1,0;True;True;True;0,865000009537;True;0,898000001907
RHN1998w;game;2017-03-02-11-25-34;11,0;26,0;100;2,0;3,0;0,0;1,0;row;1,0;False;True;False;1,13300013542;True;1,03600001335
RHN1998w;game;2017-03-02-11-25-34;11,0;27,0;100;1,0;2,0;3,0;0,0;row;0,0;True;False;True;0,632999897003;True;0,53200006485
RHN1998w;game;2017-03-02-11-25-34;11,0;28,0;100;3,0;0,0;2,0;1,0;column;0,0;False;False;False;1,76400017738;True;1,0039999485
RHN1998w;game;2017-03-02-11-25-34;11,0;29,0;100;0,0;2,0;1,0;3,0;row;0,0;False;True;False;1,10000014305;True;0,703000068665
RHN1998w;game;2017-03-02-11-25-34;11,0;30,0;100;3,0;2,0;1,0;0,0;row;0,0;True;True;True;1,26600003242;True;1,39599990845
RHN1998w;game;2017-03-02-11-25-34;11,0;31,0;100;1,0;2,0;0,0;3,0;column;1,0;True;False;True;1,03299999237;True;0,834000110626
RHN1998w;game;2017-03-02-11-25-34;11,0;32,0;100;0,0;2,0;1,0;3,0;column;1,0;True;True;True;0,766000032425;True;0,801999807358
RHN1998w;game;2017-03-02-11-25-34;11,0;33,0;100;2,0;1,0;3,0;0,0;column;0,0;False;False;False;0,799999952316;True;1,05999994278
RHN1998w;game;2017-03-02-11-25-34;11,0;34,0;100;3,0;1,0;0,0;2,0;column;0,0;True;False;True;1,16499996185;True;0,601999998093
RHN1998w;game;2017-03-02-11-25-34;11,0;35,0;100;2,0;1,0;0,0;3,0;row;1,0;False;False;False;1,99899983406;True;0,598000049591
RHN1998w;game;2017-03-02-11-25-34;11,0;36,0;100;1,0;2,0;3,0;0,0;row;1,0;False;True;False;1,66599988937;True;1,19799995422
RHN1998w;game;2017-03-02-11-25-34;11,0;37,0;100;3,0;1,0;2,0;0,0;row;1,0;True;False;True;1,43299984932;True;1,16499996185
RHN1998w;game;2017-03-02-11-25-34;11,0;38,0;100;0,0;2,0;3,0;1,0;row;1,0;True;True;True;0,967000007629;True;1,35800004005
RHN1998w;game;2017-03-02-11-25-34;11,0;39,0;100;0,0;3,0;1,0;2,0;row;1,0;True;False;True;1,26699995995;True;1,33700013161
RHN1998w;game;2017-03-02-11-25-34;11,0;40,0;100;1,0;3,0;2,0;0,0;column;0,0;True;True;True;1,20000004768;True;0,730000019073
RHN1998w;game;2017-03-02-11-25-34;11,0;41,0;100;2,0;0,0;1,0;3,0;row;1,0;False;True;False;1,26699995995;True;0,901000022888
RHN1998w;game;2017-03-02-11-25-34;11,0;42,0;100;0,0;3,0;2,0;1,0;column;0,0;False;False;True;0,766999959946;False;1,36899995804
RHN1998w;game;2017-03-02-11-25-34;11,0;43,0;100;3,0;2,0;0,0;1,0;row;0,0;True;True;True;1,16700005531;True;1,27199983597
RHN1998w;game;2017-03-02-11-25-34;11,0;44,0;100;2,0;1,0;0,0;3,0;column;0,0;False;False;False;1,29999995232;True;0,663000106812
RHN1998w;game;2017-03-02-11-25-34;11,0;45,0;100;0,0;2,0;1,0;3,0;row;1,0;False;True;False;1,13000011444;True;1,19799995422
RHN1998w;game;2017-03-02-11-25-34;11,0;46,0;100;2,0;3,0;1,0;0,0;column;0,0;False;False;False;1,93499994278;True;1,2009999752
RHN1998w;game;2017-03-02-11-25-34;11,0;47,0;100;2,0;0,0;1,0;3,0;column;1,0;False;False;False;1,33300018311;True;1,03399991989
RHN1998w;game;2017-03-02-11-25-34;11,0;48,0;100;0,0;2,0;1,0;3,0;row;1,0;True;True;False;0,826000213623;False;1,02499985695
RHN1998w;game;2017-03-02-11-25-34;12,0;1,0;1000;2,0;3,0;1,0;0,0;column;0,0;False;False;False;1,0649998188;True;1,29800009727
RHN1998w;game;2017-03-02-11-25-34;12,0;2,0;1000;3,0;2,0;1,0;0,0;column;0,0;False;False;False;1,10000014305;True;1,16900014877
RHN1998w;game;2017-03-02-11-25-34;12,0;3,0;1000;2,0;0,0;3,0;1,0;row;0,0;True;True;False;1,20000004768;False;0,694000005722
RHN1998w;game;2017-03-02-11-25-34;12,0;4,0;1000;1,0;0,0;3,0;2,0;column;1,0;True;True;False;1,0;False;0,561000108719
RHN1998w;game;2017-03-02-11-25-34;12,0;5,0;1000;3,0;2,0;1,0;0,0;column;1,0;False;True;False;1,56500005722;True;0,837000131607
RHN1998w;game;2017-03-02-11-25-34;12,0;6,0;1000;2,0;0,0;3,0;1,0;column;0,0;True;True;False;1,46600008011;False;0,532999992371
RHN1998w;game;2017-03-02-11-25-34;12,0;7,0;1000;1,0;3,0;0,0;2,0;row;0,0;True;True;True;1,56699991226;True;0,605000019073
RHN1998w;game;2017-03-02-11-25-34;12,0;8,0;1000;3,0;1,0;2,0;0,0;column;1,0;True;False;True;1,76700019836;True;0,595999956131
RHN1998w;game;2017-03-02-11-25-34;12,0;9,0;1000;3,0;0,0;1,0;2,0;row;1,0;False;True;False;1,46599984169;True;0,697000026703
RHN1998w;game;2017-03-02-11-25-34;12,0;10,0;1000;3,0;1,0;0,0;2,0;row;1,0;True;True;True;1,83300018311;True;0,894999980927
RHN1998w;game;2017-03-02-11-25-34;12,0;11,0;1000;3,0;2,0;0,0;1,0;column;0,0;True;True;True;1,06599998474;True;0,697999954224
RHN1998w;game;2017-03-02-11-25-34;12,0;12,0;1000;0,0;1,0;3,0;2,0;column;1,0;True;True;True;1,29999995232;True;1,19000005722
RHN1998w;game;2017-03-02-11-25-34;12,0;13,0;1000;3,0;2,0;0,0;1,0;column;0,0;False;False;False;1,76600003242;True;1,25999999046
RHN1998w;game;2017-03-02-11-25-34;12,0;14,0;1000;2,0;0,0;1,0;3,0;column;0,0;True;False;True;0,835000038147;True;1,17000007629
RHN1998w;game;2017-03-02-11-25-34;12,0;15,0;1000;2,0;3,0;1,0;0,0;column;1,0;True;True;True;1,26900005341;True;1,37199997902
RHN1998w;game;2017-03-02-11-25-34;12,0;16,0;1000;0,0;3,0;1,0;2,0;row;1,0;True;False;False;1,09999990463;False;0,890000104904
RHN1998w;game;2017-03-02-11-25-34;12,0;17,0;1000;0,0;3,0;1,0;2,0;row;0,0;False;True;False;1,40000009537;True;0,768999814987
RHN1998w;game;2017-03-02-11-25-34;12,0;18,0;1000;0,0;2,0;3,0;1,0;column;0,0;True;True;False;1,49899983406;False;0,828000068665
RHN1998w;game;2017-03-02-11-25-34;12,0;19,0;1000;2,0;3,0;0,0;1,0;column;1,0;False;False;False;0,867000102997;True;0,767999887466
RHN1998w;game;2017-03-02-11-25-34;12,0;20,0;1000;0,0;2,0;3,0;1,0;row;0,0;False;False;False;1,89999985695;True;1,43399977684
RHN1998w;game;2017-03-02-11-25-34;12,0;21,0;1000;0,0;1,0;2,0;3,0;column;1,0;True;True;True;1,56700015068;True;0,862999916077
RHN1998w;game;2017-03-02-11-25-34;12,0;22,0;1000;0,0;1,0;2,0;3,0;column;0,0;False;True;False;1,76699995995;True;1,1369998455
RHN1998w;game;2017-03-02-11-25-34;12,0;23,0;1000;1,0;3,0;2,0;0,0;row;1,0;True;True;True;1,40000009537;True;0,733000040054
RHN1998w;game;2017-03-02-11-25-34;12,0;24,0;1000;3,0;2,0;1,0;0,0;row;1,0;True;False;True;1,79999995232;True;1,19500017166
RHN1998w;game;2017-03-02-11-25-34;12,0;25,0;1000;2,0;1,0;0,0;3,0;row;0,0;False;False;False;1,73399996758;True;1,33100008965
RHN1998w;game;2017-03-02-11-25-34;12,0;26,0;1000;0,0;3,0;2,0;1,0;column;0,0;True;False;True;0,799999952316;True;0,703000068665
RHN1998w;game;2017-03-02-11-25-34;12,0;27,0;1000;2,0;3,0;0,0;1,0;row;0,0;False;False;False;0,900000095367;True;0,56200003624
RHN1998w;game;2017-03-02-11-25-34;12,0;28,0;1000;3,0;0,0;2,0;1,0;row;0,0;False;True;False;1,5;True;1,05700016022
RHN1998w;game;2017-03-02-11-25-34;12,0;29,0;1000;2,0;0,0;1,0;3,0;column;0,0;False;False;False;1,39899992943;True;0,927999973297
RHN1998w;game;2017-03-02-11-25-34;12,0;30,0;1000;3,0;2,0;1,0;0,0;row;0,0;False;True;False;0,96599984169;True;0,560000181198
RHN1998w;game;2017-03-02-11-25-34;12,0;31,0;1000;2,0;3,0;0,0;1,0;row;1,0;False;True;False;1,367000103;True;1,09099984169
RHN1998w;game;2017-03-02-11-25-34;12,0;32,0;1000;3,0;0,0;2,0;1,0;column;1,0;False;True;False;1,56699991226;True;1,09500002861
RHN1998w;game;2017-03-02-11-25-34;12,0;33,0;1000;3,0;1,0;0,0;2,0;row;0,0;True;True;True;0,967000007629;True;0,862999916077
RHN1998w;game;2017-03-02-11-25-34;12,0;34,0;1000;2,0;0,0;3,0;1,0;row;0,0;False;True;True;1,10000014305;False;1,16299986839
RHN1998w;game;2017-03-02-11-25-34;12,0;35,0;1000;3,0;0,0;2,0;1,0;row;1,0;True;True;True;0,865999937057;True;1,0
RHN1998w;game;2017-03-02-11-25-34;12,0;36,0;1000;1,0;2,0;0,0;3,0;row;1,0;False;False;False;1,19999980927;True;1,10000014305
RHN1998w;game;2017-03-02-11-25-34;12,0;37,0;1000;3,0;1,0;2,0;0,0;column;0,0;False;False;False;1,06699991226;True;1,29299998283
RHN1998w;game;2017-03-02-11-25-34;12,0;38,0;1000;1,0;2,0;0,0;3,0;column;0,0;True;True;False;0,863999843597;False;0,732000112534
RHN1998w;game;2017-03-02-11-25-34;12,0;39,0;1000;3,0;0,0;1,0;2,0;column;1,0;True;True;False;0,867000102997;False;0,801000118256
RHN1998w;game;2017-03-02-11-25-34;12,0;40,0;1000;1,0;3,0;2,0;0,0;column;1,0;False;True;False;1,66799998283;True;1,16600012779
RHN1998w;game;2017-03-02-11-25-34;12,0;41,0;1000;0,0;1,0;2,0;3,0;column;0,0;True;False;True;0,966999769211;True;1,06300020218
RHN1998w;game;2017-03-02-11-25-34;12,0;42,0;1000;3,0;2,0;1,0;0,0;column;1,0;True;False;False;1,132999897;False;1,16300010681
RHN1998w;game;2017-03-02-11-25-34;12,0;43,0;1000;3,0;2,0;1,0;0,0;row;0,0;True;False;False;0,900000095367;False;1,37399983406
RHN1998w;game;2017-03-02-11-25-34;12,0;44,0;1000;0,0;2,0;1,0;3,0;row;1,0;True;True;True;0,634000062943;True;0,796000003815
RHN1998w;game;2017-03-02-11-25-34;12,0;45,0;1000;0,0;2,0;1,0;3,0;row;0,0;True;False;False;0,934000015259;False;0,567999839783
RHN1998w;game;2017-03-02-11-25-34;12,0;46,0;1000;0,0;1,0;3,0;2,0;row;0,0;False;False;False;1,10000014305;True;0,569999933243
RHN1998w;game;2017-03-02-11-25-34;12,0;47,0;1000;2,0;1,0;0,0;3,0;row;0,0;True;True;True;1,20000004768;True;0,707000017166
RHN1998w;game;2017-03-02-11-25-34;12,0;48,0;1000;1,0;0,0;3,0;2,0;row;0,0;False;True;False;0,865999937057;True;1,32999992371
