Observer;Condition;SessionID;Block;Trial;COA;Color0;Color1;Color2;Color3;Target;Which;Match;FlipComplimentary;Response;RT;Correct;OnsetDelay
SBS1992w;game;2017-03-24-10-46-55;1,0;1,0;-100;2,0;1,0;0,0;3,0;column;0,0;False;False;False;2,11600017548;True;1,35400009155
SBS1992w;game;2017-03-24-10-46-55;1,0;2,0;-100;1,0;0,0;2,0;3,0;row;1,0;False;False;False;1,45000004768;True;1,13100004196
SBS1992w;game;2017-03-24-10-46-55;1,0;3,0;-100;1,0;0,0;3,0;2,0;column;0,0;False;False;False;1,382999897;True;0,759000062943
SBS1992w;game;2017-03-24-10-46-55;1,0;4,0;-100;3,0;1,0;0,0;2,0;row;1,0;True;False;False;1,0490000248;False;0,906000137329
SBS1992w;game;2017-03-24-10-46-55;1,0;5,0;-100;0,0;2,0;1,0;3,0;column;1,0;False;True;False;1,3140001297;True;0,993000030518
SBS1992w;game;2017-03-24-10-46-55;1,0;6,0;-100;2,0;3,0;1,0;0,0;row;0,0;False;True;False;1,14999985695;True;1,33700013161
SBS1992w;game;2017-03-24-10-46-55;1,0;7,0;-100;0,0;1,0;2,0;3,0;column;0,0;True;True;True;1,15199995041;True;1,23300004005
SBS1992w;game;2017-03-24-10-46-55;1,0;8,0;-100;0,0;2,0;3,0;1,0;row;0,0;False;True;False;0,917000055313;True;1,00500011444
SBS1992w;game;2017-03-24-10-46-55;1,0;9,0;-100;2,0;3,0;0,0;1,0;row;0,0;True;True;True;1,28200006485;True;0,570999860764
SBS1992w;game;2017-03-24-10-46-55;1,0;10,0;-100;2,0;3,0;0,0;1,0;column;0,0;True;True;False;0,78200006485;False;0,962999820709
SBS1992w;game;2017-03-24-10-46-55;1,0;11,0;-100;3,0;0,0;1,0;2,0;column;0,0;False;False;False;1,08299994469;True;1,33800005913
SBS1992w;game;2017-03-24-10-46-55;1,0;12,0;-100;1,0;2,0;0,0;3,0;row;1,0;True;True;False;1,28400015831;False;0,630999803543
SBS1992w;game;2017-03-24-10-46-55;1,0;13,0;-100;2,0;3,0;0,0;1,0;column;1,0;True;False;False;1,11699986458;False;1,242000103
SBS1992w;game;2017-03-24-10-46-55;1,0;14,0;-100;1,0;0,0;3,0;2,0;row;0,0;True;True;True;0,650000095367;True;1,19799995422
SBS1992w;game;2017-03-24-10-46-55;1,0;15,0;-100;3,0;0,0;1,0;2,0;column;0,0;True;True;False;0,915999889374;False;0,598999977112
SBS1992w;game;2017-03-24-10-46-55;1,0;16,0;-100;0,0;3,0;2,0;1,0;row;1,0;False;True;False;1,01800012589;True;0,571000099182
SBS1992w;game;2017-03-24-10-46-55;1,0;17,0;-100;3,0;1,0;0,0;2,0;column;1,0;True;False;True;0,75;True;1,39899992943
SBS1992w;game;2017-03-24-10-46-55;1,0;18,0;-100;3,0;2,0;1,0;0,0;row;0,0;False;True;False;1,48399996758;True;1,4279999733
SBS1992w;game;2017-03-24-10-46-55;1,0;19,0;-100;3,0;2,0;1,0;0,0;column;1,0;True;False;True;1,01499986649;True;1,29000020027
SBS1992w;game;2017-03-24-10-46-55;1,0;20,0;-100;2,0;1,0;0,0;3,0;row;1,0;False;False;False;0,816999912262;True;0,563999891281
SBS1992w;game;2017-03-24-10-46-55;1,0;21,0;-100;3,0;0,0;1,0;2,0;row;0,0;True;True;True;1,15000009537;True;1,02899980545
SBS1992w;game;2017-03-24-10-46-55;1,0;22,0;-100;1,0;3,0;0,0;2,0;column;1,0;False;True;False;0,815999984741;True;0,973999977112
SBS1992w;game;2017-03-24-10-46-55;1,0;23,0;-100;0,0;3,0;1,0;2,0;column;1,0;True;True;True;0,717000007629;True;0,592000007629
SBS1992w;game;2017-03-24-10-46-55;1,0;24,0;-100;0,0;3,0;2,0;1,0;column;0,0;False;True;False;1,04999995232;True;0,891999959946
SBS1992w;game;2017-03-24-10-46-55;1,0;25,0;-100;0,0;3,0;2,0;1,0;row;0,0;True;True;True;0,782999992371;True;1,09599995613
SBS1992w;game;2017-03-24-10-46-55;1,0;26,0;-100;1,0;0,0;3,0;2,0;row;0,0;False;False;False;0,649000167847;True;0,795000076294
SBS1992w;game;2017-03-24-10-46-55;1,0;27,0;-100;0,0;2,0;3,0;1,0;row;1,0;True;False;True;0,713999986649;True;1,15999984741
SBS1992w;game;2017-03-24-10-46-55;1,0;28,0;-100;0,0;3,0;1,0;2,0;row;0,0;True;False;False;0,782999992371;False;1,02699995041
SBS1992w;game;2017-03-24-10-46-55;1,0;29,0;-100;2,0;0,0;1,0;3,0;column;1,0;False;True;False;0,882999897003;True;1,43099999428
SBS1992w;game;2017-03-24-10-46-55;1,0;30,0;-100;1,0;3,0;0,0;2,0;column;0,0;True;True;False;0,782999992371;False;1,23000001907
SBS1992w;game;2017-03-24-10-46-55;1,0;31,0;-100;0,0;1,0;2,0;3,0;column;1,0;False;True;False;0,816999912262;True;1,0609998703
SBS1992w;game;2017-03-24-10-46-55;1,0;32,0;-100;3,0;0,0;1,0;2,0;column;1,0;True;True;False;1,01600003242;False;1,50200009346
SBS1992w;game;2017-03-24-10-46-55;1,0;33,0;-100;1,0;3,0;2,0;0,0;row;1,0;False;True;True;1,48399996758;False;1,46800017357
SBS1992w;game;2017-03-24-10-46-55;1,0;34,0;-100;0,0;1,0;2,0;3,0;row;0,0;True;False;False;0,782999992371;False;1,23099994659
SBS1992w;game;2017-03-24-10-46-55;1,0;35,0;-100;3,0;0,0;2,0;1,0;column;1,0;True;True;False;1,01699995995;False;0,766999959946
SBS1992w;game;2017-03-24-10-46-55;1,0;36,0;-100;3,0;1,0;0,0;2,0;row;0,0;False;True;False;0,649000167847;True;0,864000082016
SBS1992w;game;2017-03-24-10-46-55;1,0;37,0;-100;3,0;0,0;1,0;2,0;row;1,0;True;False;True;0,749000072479;True;1,23099994659
SBS1992w;game;2017-03-24-10-46-55;1,0;38,0;-100;1,0;3,0;0,0;2,0;row;0,0;True;True;False;1,14800000191;False;1,45799994469
SBS1992w;game;2017-03-24-10-46-55;1,0;39,0;-100;1,0;3,0;2,0;0,0;column;1,0;False;True;True;0,982000112534;False;0,657999992371
SBS1992w;game;2017-03-24-10-46-55;1,0;40,0;-100;2,0;0,0;1,0;3,0;row;0,0;False;False;False;0,815999984741;True;1,36800003052
SBS1992w;game;2017-03-24-10-46-55;1,0;41,0;-100;0,0;1,0;3,0;2,0;row;1,0;False;False;False;1,28200006485;True;0,827999830246
SBS1992w;game;2017-03-24-10-46-55;1,0;42,0;-100;1,0;3,0;0,0;2,0;row;1,0;True;True;True;0,983999967575;True;0,806999921799
SBS1992w;game;2017-03-24-10-46-55;1,0;43,0;-100;0,0;3,0;1,0;2,0;row;1,0;False;True;False;1,05100011826;True;1,29399991035
SBS1992w;game;2017-03-24-10-46-55;1,0;44,0;-100;3,0;2,0;0,0;1,0;column;0,0;False;True;False;1,11400008202;True;0,663999795914
SBS1992w;game;2017-03-24-10-46-55;1,0;45,0;-100;0,0;1,0;2,0;3,0;column;1,0;True;True;True;0,816999912262;True;0,922999858856
SBS1992w;game;2017-03-24-10-46-55;1,0;46,0;-100;3,0;2,0;0,0;1,0;column;0,0;True;True;True;1,21700000763;True;1,49399995804
SBS1992w;game;2017-03-24-10-46-55;1,0;47,0;-100;3,0;0,0;1,0;2,0;row;0,0;False;True;False;0,782999992371;True;0,526000022888
SBS1992w;game;2017-03-24-10-46-55;1,0;48,0;-100;2,0;0,0;3,0;1,0;column;0,0;False;True;False;0,984999895096;True;0,895000219345
SBS1992w;game;2017-03-24-10-46-55;2,0;1,0;100;3,0;1,0;2,0;0,0;column;1,0;False;True;True;0,833999872208;False;0,93499994278
SBS1992w;game;2017-03-24-10-46-55;2,0;2,0;100;2,0;3,0;0,0;1,0;row;1,0;False;False;False;0,599999904633;True;0,90700006485
SBS1992w;game;2017-03-24-10-46-55;2,0;3,0;100;1,0;2,0;0,0;3,0;column;1,0;True;False;True;0,700000047684;True;1,36400008202
SBS1992w;game;2017-03-24-10-46-55;2,0;4,0;100;1,0;0,0;2,0;3,0;column;0,0;False;False;False;0,799999952316;True;1,29199981689
SBS1992w;game;2017-03-24-10-46-55;2,0;5,0;100;0,0;2,0;3,0;1,0;row;1,0;False;True;False;0,898999929428;True;1,22800016403
SBS1992w;game;2017-03-24-10-46-55;2,0;6,0;100;1,0;2,0;3,0;0,0;row;1,0;False;False;False;0,865000009537;True;0,626000165939
SBS1992w;game;2017-03-24-10-46-55;2,0;7,0;100;3,0;2,0;1,0;0,0;column;0,0;True;True;True;0,666000127792;True;0,938999891281
SBS1992w;game;2017-03-24-10-46-55;2,0;8,0;100;2,0;1,0;3,0;0,0;column;0,0;False;False;True;1,33299994469;False;1,09400010109
SBS1992w;game;2017-03-24-10-46-55;2,0;9,0;100;3,0;2,0;0,0;1,0;column;1,0;False;True;False;0,700000047684;True;0,531000137329
SBS1992w;game;2017-03-24-10-46-55;2,0;10,0;100;3,0;2,0;0,0;1,0;row;0,0;False;True;False;0,933000087738;True;1,23900008202
SBS1992w;game;2017-03-24-10-46-55;2,0;11,0;100;0,0;2,0;1,0;3,0;column;0,0;True;True;False;0,766000032425;False;0,624000072479
SBS1992w;game;2017-03-24-10-46-55;2,0;12,0;100;0,0;3,0;1,0;2,0;column;0,0;True;True;True;1,16599988937;True;1,19500017166
SBS1992w;game;2017-03-24-10-46-55;2,0;13,0;100;3,0;2,0;0,0;1,0;row;1,0;False;False;False;0,832999944687;True;0,625
SBS1992w;game;2017-03-24-10-46-55;2,0;14,0;100;3,0;1,0;0,0;2,0;column;1,0;True;True;True;0,797999858856;True;0,659999847412
SBS1992w;game;2017-03-24-10-46-55;2,0;15,0;100;2,0;1,0;0,0;3,0;column;1,0;False;False;False;1,0;True;0,56500005722
SBS1992w;game;2017-03-24-10-46-55;2,0;16,0;100;1,0;2,0;3,0;0,0;column;1,0;False;True;False;0,866000175476;True;1,26800012589
SBS1992w;game;2017-03-24-10-46-55;2,0;17,0;100;3,0;0,0;2,0;1,0;column;1,0;True;True;False;1,06599998474;False;0,56200003624
SBS1992w;game;2017-03-24-10-46-55;2,0;18,0;100;1,0;3,0;2,0;0,0;column;1,0;True;True;True;3,90000009537;True;1,06300020218
SBS1992w;game;2017-03-24-10-46-55;2,0;19,0;100;2,0;0,0;1,0;3,0;row;0,0;True;True;True;2,69999980927;True;0,637000083923
SBS1992w;game;2017-03-24-10-46-55;2,0;20,0;100;1,0;2,0;0,0;3,0;row;0,0;True;False;False;1,09999990463;False;0,526000022888
SBS1992w;game;2017-03-24-10-46-55;2,0;21,0;100;1,0;2,0;3,0;0,0;column;0,0;True;True;False;2,46599984169;False;0,967000007629
SBS1992w;game;2017-03-24-10-46-55;2,0;22,0;100;0,0;2,0;1,0;3,0;column;1,0;True;False;True;1,66700005531;True;0,964999914169
SBS1992w;game;2017-03-24-10-46-55;2,0;23,0;100;0,0;3,0;2,0;1,0;row;0,0;True;False;True;1,86699986458;True;0,693000078201
SBS1992w;game;2017-03-24-10-46-55;2,0;24,0;100;3,0;1,0;0,0;2,0;row;1,0;False;False;False;2,39999985695;True;0,667999982834
SBS1992w;game;2017-03-24-10-46-55;2,0;25,0;100;0,0;3,0;2,0;1,0;row;1,0;True;False;False;1,20000004768;False;1,39800000191
SBS1992w;game;2017-03-24-10-46-55;2,0;26,0;100;0,0;1,0;3,0;2,0;row;0,0;False;False;False;1,06500005722;True;0,790999889374
SBS1992w;game;2017-03-24-10-46-55;2,0;27,0;100;1,0;2,0;0,0;3,0;column;0,0;True;True;True;1,36800003052;True;1,05999994278
SBS1992w;game;2017-03-24-10-46-55;2,0;28,0;100;3,0;1,0;2,0;0,0;row;0,0;False;True;False;1,5;True;0,992000102997
SBS1992w;game;2017-03-24-10-46-55;2,0;29,0;100;3,0;1,0;0,0;2,0;row;0,0;True;False;False;1,0;False;1,16600012779
SBS1992w;game;2017-03-24-10-46-55;2,0;30,0;100;0,0;2,0;3,0;1,0;column;1,0;False;False;False;1,93300008774;True;0,894999980927
SBS1992w;game;2017-03-24-10-46-55;2,0;31,0;100;0,0;2,0;3,0;1,0;row;0,0;True;True;True;0,766999959946;True;0,807000160217
SBS1992w;game;2017-03-24-10-46-55;2,0;32,0;100;3,0;2,0;0,0;1,0;column;0,0;False;False;False;2,43300008774;True;1,19799995422
SBS1992w;game;2017-03-24-10-46-55;2,0;33,0;100;0,0;1,0;2,0;3,0;column;0,0;False;True;False;1,93300008774;True;0,999000072479
SBS1992w;game;2017-03-24-10-46-55;2,0;34,0;100;0,0;2,0;3,0;1,0;row;1,0;True;False;False;2,36699986458;False;0,990999937057
SBS1992w;game;2017-03-24-10-46-55;2,0;35,0;100;2,0;0,0;1,0;3,0;row;1,0;True;True;False;2,132999897;False;1,32899999619
SBS1992w;game;2017-03-24-10-46-55;2,0;36,0;100;2,0;0,0;3,0;1,0;column;1,0;True;True;True;1,03299999237;True;0,594000101089
SBS1992w;game;2017-03-24-10-46-55;2,0;37,0;100;1,0;3,0;0,0;2,0;row;0,0;True;False;False;1,5;False;0,763999938965
SBS1992w;game;2017-03-24-10-46-55;2,0;38,0;100;1,0;3,0;2,0;0,0;row;1,0;False;False;False;1,79999995232;True;1,02699995041
SBS1992w;game;2017-03-24-10-46-55;2,0;39,0;100;2,0;0,0;1,0;3,0;column;0,0;True;True;True;1,0;True;1,49799990654
SBS1992w;game;2017-03-24-10-46-55;2,0;40,0;100;2,0;1,0;3,0;0,0;column;1,0;False;False;False;1,46700000763;True;0,832999944687
SBS1992w;game;2017-03-24-10-46-55;2,0;41,0;100;2,0;0,0;3,0;1,0;row;0,0;True;False;False;2,23399996758;False;1,23200011253
SBS1992w;game;2017-03-24-10-46-55;2,0;42,0;100;0,0;3,0;2,0;1,0;row;0,0;False;False;True;1,09999990463;False;1,2389998436
SBS1992w;game;2017-03-24-10-46-55;2,0;43,0;100;3,0;1,0;2,0;0,0;column;0,0;True;False;False;0,900000095367;False;0,996000051498
SBS1992w;game;2017-03-24-10-46-55;2,0;44,0;100;1,0;0,0;3,0;2,0;column;1,0;False;False;False;1,46700000763;True;1,0640001297
SBS1992w;game;2017-03-24-10-46-55;2,0;45,0;100;3,0;0,0;2,0;1,0;column;1,0;False;False;False;1,60000014305;True;1,05799984932
SBS1992w;game;2017-03-24-10-46-55;2,0;46,0;100;3,0;1,0;2,0;0,0;row;1,0;True;True;True;1,20000004768;True;1,46000003815
SBS1992w;game;2017-03-24-10-46-55;2,0;47,0;100;1,0;2,0;3,0;0,0;row;1,0;True;True;False;1,367000103;False;1,16799998283
SBS1992w;game;2017-03-24-10-46-55;2,0;48,0;100;0,0;3,0;1,0;2,0;column;1,0;False;True;True;1,5;False;0,566999912262
SBS1992w;game;2017-03-24-10-46-55;3,0;1,0;1000;1,0;0,0;3,0;2,0;row;0,0;True;False;False;2,5;False;0,533999919891
SBS1992w;game;2017-03-24-10-46-55;3,0;2,0;1000;3,0;2,0;0,0;1,0;column;0,0;False;True;False;19,8629999161;True;0,59299993515
SBS1992w;game;2017-03-24-10-46-55;3,0;3,0;1000;1,0;3,0;0,0;2,0;row;1,0;False;True;False;1,23300004005;True;1,33000016212
SBS1992w;game;2017-03-24-10-46-55;3,0;4,0;1000;0,0;2,0;1,0;3,0;row;1,0;False;False;False;1,60000014305;True;0,594000101089
SBS1992w;game;2017-03-24-10-46-55;3,0;5,0;1000;1,0;2,0;0,0;3,0;column;0,0;False;False;False;1,63400006294;True;0,967000007629
SBS1992w;game;2017-03-24-10-46-55;3,0;6,0;1000;1,0;2,0;3,0;0,0;column;0,0;False;False;False;1,23399996758;True;0,860999822617
SBS1992w;game;2017-03-24-10-46-55;3,0;7,0;1000;3,0;2,0;1,0;0,0;row;1,0;False;False;False;1,16799998283;True;1,39300012589
SBS1992w;game;2017-03-24-10-46-55;3,0;8,0;1000;0,0;2,0;3,0;1,0;row;1,0;False;True;False;1,06599998474;True;1,43799996376
SBS1992w;game;2017-03-24-10-46-55;3,0;9,0;1000;0,0;3,0;1,0;2,0;column;1,0;True;True;True;0,932999849319;True;0,697999954224
SBS1992w;game;2017-03-24-10-46-55;3,0;10,0;1000;1,0;3,0;2,0;0,0;column;1,0;True;False;False;1,06699991226;False;1,3599998951
SBS1992w;game;2017-03-24-10-46-55;3,0;11,0;1000;1,0;2,0;0,0;3,0;column;0,0;True;False;False;1,5;False;1,26499986649
SBS1992w;game;2017-03-24-10-46-55;3,0;12,0;1000;2,0;0,0;1,0;3,0;row;1,0;True;True;True;1,19899988174;True;0,601999998093
SBS1992w;game;2017-03-24-10-46-55;3,0;13,0;1000;2,0;1,0;0,0;3,0;column;1,0;False;False;False;1,40000009537;True;1,125
SBS1992w;game;2017-03-24-10-46-55;3,0;14,0;1000;1,0;0,0;2,0;3,0;column;0,0;False;False;False;1,43299984932;True;0,697999954224
SBS1992w;game;2017-03-24-10-46-55;3,0;15,0;1000;3,0;2,0;0,0;1,0;row;1,0;False;False;False;1,16700005531;True;1,3259999752
SBS1992w;game;2017-03-24-10-46-55;3,0;16,0;1000;2,0;1,0;3,0;0,0;column;1,0;True;False;True;2,23300004005;True;1,39400005341
SBS1992w;game;2017-03-24-10-46-55;3,0;17,0;1000;1,0;0,0;2,0;3,0;row;0,0;True;False;False;1,23300004005;False;1,02700018883
SBS1992w;game;2017-03-24-10-46-55;3,0;18,0;1000;0,0;3,0;2,0;1,0;column;0,0;True;False;True;0,965000152588;True;0,594999790192
SBS1992w;game;2017-03-24-10-46-55;3,0;19,0;1000;1,0;3,0;2,0;0,0;row;1,0;False;True;False;1,83299994469;True;0,861000061035
SBS1992w;game;2017-03-24-10-46-55;3,0;20,0;1000;3,0;2,0;1,0;0,0;column;1,0;False;True;False;1,6320002079;True;1,36299991608
SBS1992w;game;2017-03-24-10-46-55;3,0;21,0;1000;1,0;0,0;2,0;3,0;column;0,0;True;False;True;2,632999897;True;1,09000015259
SBS1992w;game;2017-03-24-10-46-55;3,0;22,0;1000;1,0;3,0;2,0;0,0;row;0,0;True;True;True;1,49900007248;True;0,892000198364
SBS1992w;game;2017-03-24-10-46-55;3,0;23,0;1000;3,0;1,0;0,0;2,0;column;1,0;True;False;False;1,39999985695;False;1,47300004959
SBS1992w;game;2017-03-24-10-46-55;3,0;24,0;1000;2,0;1,0;0,0;3,0;column;0,0;False;True;False;1,0;True;0,865000009537
SBS1992w;game;2017-03-24-10-46-55;3,0;25,0;1000;1,0;2,0;0,0;3,0;row;0,0;True;False;False;0,864000082016;False;1,26300001144
SBS1992w;game;2017-03-24-10-46-55;3,0;26,0;1000;3,0;2,0;0,0;1,0;column;1,0;False;True;False;1,20000004768;True;0,924000024796
SBS1992w;game;2017-03-24-10-46-55;3,0;27,0;1000;2,0;0,0;3,0;1,0;column;1,0;False;True;True;1,5;False;1,257999897
SBS1992w;game;2017-03-24-10-46-55;3,0;28,0;1000;1,0;0,0;2,0;3,0;column;1,0;True;True;True;1,0;True;0,664000034332
SBS1992w;game;2017-03-24-10-46-55;3,0;29,0;1000;0,0;2,0;1,0;3,0;column;0,0;True;False;False;1,10000014305;False;1,09200000763
SBS1992w;game;2017-03-24-10-46-55;3,0;30,0;1000;0,0;1,0;2,0;3,0;row;1,0;True;True;True;0,832999944687;True;1,38999986649
SBS1992w;game;2017-03-24-10-46-55;3,0;31,0;1000;2,0;3,0;0,0;1,0;column;0,0;True;False;False;2,69900012016;False;1,33899998665
SBS1992w;game;2017-03-24-10-46-55;3,0;32,0;1000;0,0;2,0;3,0;1,0;row;0,0;False;False;False;1,10000014305;True;1,39199995995
SBS1992w;game;2017-03-24-10-46-55;3,0;33,0;1000;3,0;1,0;0,0;2,0;row;0,0;True;False;False;1,50099992752;False;0,699000120163
SBS1992w;game;2017-03-24-10-46-55;3,0;34,0;1000;0,0;1,0;2,0;3,0;column;0,0;True;True;True;0,799999952316;True;0,769999980927
SBS1992w;game;2017-03-24-10-46-55;3,0;35,0;1000;0,0;1,0;3,0;2,0;column;1,0;True;False;True;1,73300004005;True;1,19600009918
SBS1992w;game;2017-03-24-10-46-55;3,0;36,0;1000;2,0;0,0;3,0;1,0;row;1,0;True;True;True;1,46700000763;True;0,936000108719
SBS1992w;game;2017-03-24-10-46-55;3,0;37,0;1000;1,0;2,0;0,0;3,0;row;0,0;False;False;False;1,53399991989;True;1,19799995422
SBS1992w;game;2017-03-24-10-46-55;3,0;38,0;1000;0,0;1,0;3,0;2,0;row;0,0;True;False;True;3,0;True;1,46000003815
SBS1992w;game;2017-03-24-10-46-55;3,0;39,0;1000;2,0;3,0;1,0;0,0;row;0,0;True;False;False;0,699999809265;False;1,29999995232
SBS1992w;game;2017-03-24-10-46-55;3,0;40,0;1000;3,0;2,0;1,0;0,0;column;0,0;False;True;False;2,5;True;0,725000143051
SBS1992w;game;2017-03-24-10-46-55;3,0;41,0;1000;1,0;2,0;0,0;3,0;column;1,0;False;False;True;2,09899997711;False;0,994999885559
SBS1992w;game;2017-03-24-10-46-55;3,0;42,0;1000;0,0;2,0;3,0;1,0;column;1,0;False;False;False;1,33299994469;True;0,930000066757
SBS1992w;game;2017-03-24-10-46-55;3,0;43,0;1000;3,0;0,0;1,0;2,0;row;1,0;True;False;True;2,09800004959;True;1,40299987793
SBS1992w;game;2017-03-24-10-46-55;3,0;44,0;1000;3,0;1,0;0,0;2,0;column;1,0;False;False;False;1,74000000954;True;0,894999980927
SBS1992w;game;2017-03-24-10-46-55;3,0;45,0;1000;3,0;0,0;1,0;2,0;column;1,0;True;True;True;1,4350001812;True;1,00099992752
SBS1992w;game;2017-03-24-10-46-55;3,0;46,0;1000;1,0;3,0;0,0;2,0;row;0,0;False;True;False;1,93300008774;True;1,09599995613
SBS1992w;game;2017-03-24-10-46-55;3,0;47,0;1000;1,0;2,0;3,0;0,0;row;0,0;True;True;True;1,56700015068;True;1,26399993896
SBS1992w;game;2017-03-24-10-46-55;3,0;48,0;1000;3,0;0,0;1,0;2,0;row;0,0;True;True;True;1,10000014305;True;0,593000173569
SBS1992w;game;2017-03-24-10-46-55;4,0;1,0;100;1,0;3,0;2,0;0,0;row;0,0;True;False;False;1,53299999237;False;0,532999992371
SBS1992w;game;2017-03-24-10-46-55;4,0;2,0;100;0,0;1,0;3,0;2,0;row;1,0;True;True;True;1,26600003242;True;1,09999990463
SBS1992w;game;2017-03-24-10-46-55;4,0;3,0;100;1,0;0,0;2,0;3,0;row;0,0;False;False;False;2,03299999237;True;0,628000020981
SBS1992w;game;2017-03-24-10-46-55;4,0;4,0;100;3,0;0,0;1,0;2,0;row;0,0;True;True;True;0,967000007629;True;0,695999860764
SBS1992w;game;2017-03-24-10-46-55;4,0;5,0;100;3,0;1,0;0,0;2,0;column;0,0;False;False;False;1,56699991226;True;0,598999977112
SBS1992w;game;2017-03-24-10-46-55;4,0;6,0;100;0,0;3,0;2,0;1,0;row;1,0;False;False;False;1,53299999237;True;1,33000016212
SBS1992w;game;2017-03-24-10-46-55;4,0;7,0;100;1,0;0,0;2,0;3,0;column;1,0;False;True;False;1,63300013542;True;0,99799990654
SBS1992w;game;2017-03-24-10-46-55;4,0;8,0;100;1,0;3,0;0,0;2,0;column;0,0;True;False;False;1,59999990463;False;1,35800004005
SBS1992w;game;2017-03-24-10-46-55;4,0;9,0;100;0,0;3,0;1,0;2,0;row;1,0;False;True;True;1,5;False;0,631999969482
SBS1992w;game;2017-03-24-10-46-55;4,0;10,0;100;2,0;3,0;0,0;1,0;row;0,0;False;True;False;1,53299999237;True;0,934000015259
SBS1992w;game;2017-03-24-10-46-55;4,0;11,0;100;1,0;2,0;3,0;0,0;column;0,0;False;False;False;1,90100002289;True;1,39300012589
SBS1992w;game;2017-03-24-10-46-55;4,0;12,0;100;0,0;1,0;3,0;2,0;column;0,0;False;False;False;2,33299994469;True;0,53200006485
SBS1992w;game;2017-03-24-10-46-55;4,0;13,0;100;2,0;3,0;0,0;1,0;column;0,0;True;False;False;1,26499986649;False;0,998999834061
SBS1992w;game;2017-03-24-10-46-55;4,0;14,0;100;3,0;2,0;1,0;0,0;row;0,0;True;False;False;1,86500000954;False;0,927000045776
SBS1992w;game;2017-03-24-10-46-55;4,0;15,0;100;0,0;2,0;1,0;3,0;row;0,0;False;True;False;1,632999897;True;0,799999952316
SBS1992w;game;2017-03-24-10-46-55;4,0;16,0;100;2,0;0,0;1,0;3,0;row;0,0;False;True;False;1,29999995232;True;1,42700004578
SBS1992w;game;2017-03-24-10-46-55;4,0;17,0;100;3,0;0,0;1,0;2,0;column;0,0;False;True;False;1,23300004005;True;0,730999946594
SBS1992w;game;2017-03-24-10-46-55;4,0;18,0;100;3,0;0,0;2,0;1,0;row;1,0;True;False;True;0,834000110626;True;0,5640001297
SBS1992w;game;2017-03-24-10-46-55;4,0;19,0;100;1,0;0,0;2,0;3,0;column;1,0;True;True;True;0,866999864578;True;0,52999997139
SBS1992w;game;2017-03-24-10-46-55;4,0;20,0;100;2,0;3,0;0,0;1,0;row;0,0;True;True;True;2,0;True;1,33000016212
SBS1992w;game;2017-03-24-10-46-55;4,0;21,0;100;3,0;1,0;2,0;0,0;row;1,0;False;True;True;2,19899988174;False;0,757999897003
SBS1992w;game;2017-03-24-10-46-55;4,0;22,0;100;0,0;2,0;3,0;1,0;column;0,0;False;False;False;1,5;True;1,06200003624
SBS1992w;game;2017-03-24-10-46-55;4,0;23,0;100;2,0;3,0;1,0;0,0;column;1,0;True;True;False;2,03500008583;False;0,928999900818
SBS1992w;game;2017-03-24-10-46-55;4,0;24,0;100;1,0;2,0;3,0;0,0;row;0,0;False;False;False;2,83100008965;True;0,661999940872
SBS1992w;game;2017-03-24-10-46-55;4,0;25,0;100;2,0;3,0;1,0;0,0;column;1,0;False;True;False;2,367000103;True;1,06599998474
SBS1992w;game;2017-03-24-10-46-55;4,0;26,0;100;0,0;3,0;1,0;2,0;column;1,0;True;False;True;0,96599984169;True;1,13000011444
SBS1992w;game;2017-03-24-10-46-55;4,0;27,0;100;2,0;0,0;1,0;3,0;row;1,0;False;True;False;1,79899978638;True;1,39800000191
SBS1992w;game;2017-03-24-10-46-55;4,0;28,0;100;1,0;3,0;0,0;2,0;column;0,0;False;False;True;0,900000095367;False;0,990000009537
SBS1992w;game;2017-03-24-10-46-55;4,0;29,0;100;2,0;3,0;1,0;0,0;row;0,0;False;True;False;1,40000009537;True;0,90099978447
SBS1992w;game;2017-03-24-10-46-55;4,0;30,0;100;0,0;3,0;2,0;1,0;column;1,0;True;False;True;1,43300008774;True;1,02300000191
SBS1992w;game;2017-03-24-10-46-55;4,0;31,0;100;3,0;1,0;0,0;2,0;column;0,0;True;True;False;1,19899988174;False;1,17100000381
SBS1992w;game;2017-03-24-10-46-55;4,0;32,0;100;3,0;1,0;2,0;0,0;row;0,0;True;True;True;0,900000095367;True;1,49399995804
SBS1992w;game;2017-03-24-10-46-55;4,0;33,0;100;3,0;0,0;2,0;1,0;row;0,0;False;True;False;1,46499991417;True;1,39199995995
SBS1992w;game;2017-03-24-10-46-55;4,0;34,0;100;3,0;0,0;2,0;1,0;column;0,0;False;True;False;1,36699986458;True;0,823999881744
SBS1992w;game;2017-03-24-10-46-55;4,0;35,0;100;3,0;2,0;0,0;1,0;column;1,0;True;False;True;0,666000127792;True;1,03199982643
SBS1992w;game;2017-03-24-10-46-55;4,0;36,0;100;2,0;0,0;1,0;3,0;column;1,0;True;False;True;0,733999967575;True;0,730999946594
SBS1992w;game;2017-03-24-10-46-55;4,0;37,0;100;1,0;3,0;0,0;2,0;column;1,0;False;False;True;1,13300013542;False;0,797999858856
SBS1992w;game;2017-03-24-10-46-55;4,0;38,0;100;0,0;1,0;2,0;3,0;column;1,0;True;True;True;0,632999897003;True;0,796000003815
SBS1992w;game;2017-03-24-10-46-55;4,0;39,0;100;0,0;2,0;3,0;1,0;row;0,0;False;False;False;0,799999952316;True;0,626999855042
SBS1992w;game;2017-03-24-10-46-55;4,0;40,0;100;2,0;3,0;1,0;0,0;column;0,0;False;False;False;1,03299999237;True;1,16799998283
SBS1992w;game;2017-03-24-10-46-55;4,0;41,0;100;2,0;3,0;0,0;1,0;column;1,0;True;True;True;1,16700005531;True;0,657999992371
SBS1992w;game;2017-03-24-10-46-55;4,0;42,0;100;2,0;1,0;3,0;0,0;column;0,0;True;True;True;1,132999897;True;0,700000047684
SBS1992w;game;2017-03-24-10-46-55;4,0;43,0;100;0,0;1,0;3,0;2,0;column;0,0;True;False;True;2,7009999752;True;0,701000213623
SBS1992w;game;2017-03-24-10-46-55;4,0;44,0;100;0,0;3,0;1,0;2,0;row;0,0;True;False;False;1,56699991226;False;0,700000047684
SBS1992w;game;2017-03-24-10-46-55;4,0;45,0;100;0,0;1,0;2,0;3,0;column;1,0;False;False;False;1,33299994469;True;1,03400015831
SBS1992w;game;2017-03-24-10-46-55;4,0;46,0;100;2,0;0,0;3,0;1,0;row;1,0;True;False;True;0,599999904633;True;0,606999874115
SBS1992w;game;2017-03-24-10-46-55;4,0;47,0;100;3,0;0,0;1,0;2,0;column;0,0;True;False;True;2,16700005531;True;1,20000004768
SBS1992w;game;2017-03-24-10-46-55;4,0;48,0;100;3,0;2,0;1,0;0,0;row;1,0;False;True;False;1,132999897;True;1,12700009346
SBS1992w;game;2017-03-24-10-46-55;5,0;1,0;1000;3,0;0,0;1,0;2,0;row;1,0;False;True;False;1,43299984932;True;0,993000030518
SBS1992w;game;2017-03-24-10-46-55;5,0;2,0;1000;0,0;1,0;2,0;3,0;column;0,0;False;False;False;1,53400015831;True;0,529000043869
SBS1992w;game;2017-03-24-10-46-55;5,0;3,0;1000;1,0;2,0;3,0;0,0;row;1,0;True;True;True;1,132999897;True;1,20199990273
SBS1992w;game;2017-03-24-10-46-55;5,0;4,0;1000;2,0;0,0;3,0;1,0;column;0,0;False;True;False;1,56599998474;True;1,30200004578
SBS1992w;game;2017-03-24-10-46-55;5,0;5,0;1000;2,0;0,0;3,0;1,0;column;1,0;True;False;True;1,367000103;True;1,33200001717
SBS1992w;game;2017-03-24-10-46-55;5,0;6,0;1000;3,0;1,0;2,0;0,0;row;0,0;True;True;True;0,766999959946;True;0,631000041962
SBS1992w;game;2017-03-24-10-46-55;5,0;7,0;1000;2,0;3,0;1,0;0,0;column;0,0;True;True;True;1,16700005531;True;0,525000095367
SBS1992w;game;2017-03-24-10-46-55;5,0;8,0;1000;3,0;0,0;1,0;2,0;row;0,0;False;True;False;2,16600012779;True;0,90399980545
SBS1992w;game;2017-03-24-10-46-55;5,0;9,0;1000;2,0;3,0;0,0;1,0;row;1,0;True;False;True;1,06699991226;True;1,46199989319
SBS1992w;game;2017-03-24-10-46-55;5,0;10,0;1000;1,0;2,0;3,0;0,0;row;1,0;False;False;False;1,93300008774;True;1,09599995613
SBS1992w;game;2017-03-24-10-46-55;5,0;11,0;1000;2,0;3,0;0,0;1,0;column;1,0;False;True;False;1,76599979401;True;0,694999933243
SBS1992w;game;2017-03-24-10-46-55;5,0;12,0;1000;2,0;0,0;3,0;1,0;row;0,0;False;True;False;2,53600001335;True;1,23199987411
SBS1992w;game;2017-03-24-10-46-55;5,0;13,0;1000;2,0;0,0;1,0;3,0;column;0,0;True;False;True;2,93400001526;True;0,929000139236
SBS1992w;game;2017-03-24-10-46-55;5,0;14,0;1000;1,0;2,0;3,0;0,0;column;0,0;True;False;True;0,899999856949;True;1,09800004959
SBS1992w;game;2017-03-24-10-46-55;5,0;15,0;1000;3,0;0,0;1,0;2,0;column;0,0;True;False;True;1,73399996758;True;0,99799990654
SBS1992w;game;2017-03-24-10-46-55;5,0;16,0;1000;0,0;1,0;3,0;2,0;column;0,0;False;True;False;3,132999897;True;0,561000108719
SBS1992w;game;2017-03-24-10-46-55;5,0;17,0;1000;2,0;3,0;0,0;1,0;row;1,0;False;False;False;1,86599993706;True;1,16400003433
SBS1992w;game;2017-03-24-10-46-55;5,0;18,0;1000;0,0;3,0;2,0;1,0;row;1,0;True;True;True;1,93400001526;True;0,592000007629
SBS1992w;game;2017-03-24-10-46-55;5,0;19,0;1000;1,0;3,0;0,0;2,0;column;0,0;False;False;False;2,53399991989;True;1,23300004005
SBS1992w;game;2017-03-24-10-46-55;5,0;20,0;1000;1,0;3,0;0,0;2,0;column;1,0;False;True;False;2,76600003242;True;0,665999889374
SBS1992w;game;2017-03-24-10-46-55;5,0;21,0;1000;3,0;0,0;2,0;1,0;row;0,0;False;True;False;2,09999990463;True;0,960999965668
SBS1992w;game;2017-03-24-10-46-55;5,0;22,0;1000;3,0;0,0;2,0;1,0;column;1,0;False;True;False;3,0;True;0,739000082016
SBS1992w;game;2017-03-24-10-46-55;5,0;23,0;1000;0,0;3,0;2,0;1,0;column;1,0;False;True;False;2,73099994659;True;0,628999948502
SBS1992w;game;2017-03-24-10-46-55;5,0;24,0;1000;1,0;3,0;0,0;2,0;row;1,0;True;True;True;2,19800019264;True;1,39599990845
SBS1992w;game;2017-03-24-10-46-55;5,0;25,0;1000;3,0;0,0;2,0;1,0;column;0,0;False;False;False;2,13300013542;True;1,00099992752
SBS1992w;game;2017-03-24-10-46-55;5,0;26,0;1000;3,0;0,0;2,0;1,0;row;1,0;True;True;True;1,00099992752;True;1,20000004768
SBS1992w;game;2017-03-24-10-46-55;5,0;27,0;1000;2,0;1,0;3,0;0,0;column;0,0;True;True;True;1,26600003242;True;1,46399998665
SBS1992w;game;2017-03-24-10-46-55;5,0;28,0;1000;2,0;3,0;1,0;0,0;row;0,0;False;False;False;2,06599998474;True;1,29299998283
SBS1992w;game;2017-03-24-10-46-55;5,0;29,0;1000;2,0;0,0;1,0;3,0;column;1,0;False;True;False;2,36800003052;True;0,603999853134
SBS1992w;game;2017-03-24-10-46-55;5,0;30,0;1000;1,0;3,0;2,0;0,0;row;1,0;True;True;True;1,16599988937;True;1,13399982452
SBS1992w;game;2017-03-24-10-46-55;5,0;31,0;1000;3,0;2,0;1,0;0,0;row;1,0;True;True;True;1,20000004768;True;1,39200019836
SBS1992w;game;2017-03-24-10-46-55;5,0;32,0;1000;3,0;2,0;0,0;1,0;row;0,0;False;True;False;3,53299999237;True;1,32799983025
SBS1992w;game;2017-03-24-10-46-55;5,0;33,0;1000;1,0;2,0;3,0;0,0;row;0,0;False;False;False;2,39999985695;True;1,09200000763
SBS1992w;game;2017-03-24-10-46-55;5,0;34,0;1000;0,0;1,0;2,0;3,0;column;1,0;False;False;False;2,43300008774;True;1,33200001717
SBS1992w;game;2017-03-24-10-46-55;5,0;35,0;1000;0,0;3,0;2,0;1,0;row;0,0;False;True;True;2,39999985695;False;0,866999864578
SBS1992w;game;2017-03-24-10-46-55;5,0;36,0;1000;0,0;3,0;1,0;2,0;row;0,0;True;False;False;1,23299980164;False;0,759999990463
SBS1992w;game;2017-03-24-10-46-55;5,0;37,0;1000;1,0;0,0;3,0;2,0;row;0,0;False;False;False;1,66600012779;True;0,898000001907
SBS1992w;game;2017-03-24-10-46-55;5,0;38,0;1000;0,0;2,0;1,0;3,0;row;0,0;True;False;True;2,83400011063;True;0,862999916077
SBS1992w;game;2017-03-24-10-46-55;5,0;39,0;1000;2,0;1,0;3,0;0,0;row;0,0;False;True;False;2,16700005531;True;0,698999881744
SBS1992w;game;2017-03-24-10-46-55;5,0;40,0;1000;3,0;0,0;1,0;2,0;column;0,0;False;True;False;2,9319999218;True;1,25999999046
SBS1992w;game;2017-03-24-10-46-55;5,0;41,0;1000;0,0;2,0;1,0;3,0;column;1,0;False;False;False;2,20000004768;True;0,830999851227
SBS1992w;game;2017-03-24-10-46-55;5,0;42,0;1000;3,0;1,0;2,0;0,0;row;1,0;True;False;True;1,16599988937;True;0,539999961853
SBS1992w;game;2017-03-24-10-46-55;5,0;43,0;1000;2,0;0,0;3,0;1,0;row;0,0;True;True;True;1,66599988937;True;1,23299980164
SBS1992w;game;2017-03-24-10-46-55;5,0;44,0;1000;0,0;1,0;3,0;2,0;row;1,0;True;False;False;1,63300013542;False;1,03999996185
SBS1992w;game;2017-03-24-10-46-55;5,0;45,0;1000;3,0;2,0;0,0;1,0;row;0,0;True;False;True;2,66700005531;True;1,39100003242
SBS1992w;game;2017-03-24-10-46-55;5,0;46,0;1000;0,0;3,0;1,0;2,0;column;0,0;False;True;False;4,09999990463;True;0,796999931335
SBS1992w;game;2017-03-24-10-46-55;5,0;47,0;1000;0,0;2,0;1,0;3,0;row;1,0;True;False;True;1,2990000248;True;0,539000034332
SBS1992w;game;2017-03-24-10-46-55;5,0;48,0;1000;2,0;3,0;0,0;1,0;column;1,0;True;True;False;1,86699986458;False;1,32500004768
SBS1992w;game;2017-03-24-10-46-55;6,0;1,0;-100;3,0;2,0;1,0;0,0;row;0,0;True;True;True;1,5490000248;True;1,40000009537
SBS1992w;game;2017-03-24-10-46-55;6,0;2,0;-100;0,0;1,0;3,0;2,0;column;1,0;False;False;False;2,51699995995;True;1,39600014687
SBS1992w;game;2017-03-24-10-46-55;6,0;3,0;-100;1,0;3,0;2,0;0,0;row;0,0;False;True;False;2,61699986458;True;0,696000099182
SBS1992w;game;2017-03-24-10-46-55;6,0;4,0;-100;1,0;3,0;2,0;0,0;column;0,0;True;False;True;2,18400001526;True;0,664999961853
SBS1992w;game;2017-03-24-10-46-55;6,0;5,0;-100;2,0;3,0;0,0;1,0;row;1,0;False;False;False;2,01600003242;True;0,733000040054
SBS1992w;game;2017-03-24-10-46-55;6,0;6,0;-100;0,0;1,0;3,0;2,0;column;0,0;True;True;True;1,15000009537;True;1,23300004005
SBS1992w;game;2017-03-24-10-46-55;6,0;7,0;-100;3,0;0,0;2,0;1,0;row;1,0;False;True;False;1,75100016594;True;0,564999818802
SBS1992w;game;2017-03-24-10-46-55;6,0;8,0;-100;0,0;2,0;3,0;1,0;row;1,0;False;False;False;1,48399996758;True;1,50099992752
SBS1992w;game;2017-03-24-10-46-55;6,0;9,0;-100;2,0;0,0;3,0;1,0;column;1,0;False;True;False;1,28399991989;True;0,696000099182
SBS1992w;game;2017-03-24-10-46-55;6,0;10,0;-100;0,0;1,0;3,0;2,0;row;0,0;False;False;False;2,05100011826;True;0,759999990463
SBS1992w;game;2017-03-24-10-46-55;6,0;11,0;-100;1,0;2,0;0,0;3,0;row;0,0;False;False;False;1,48399996758;True;1,19599986076
SBS1992w;game;2017-03-24-10-46-55;6,0;12,0;-100;0,0;3,0;2,0;1,0;column;0,0;True;True;True;0,882999897003;True;1,49900007248
SBS1992w;game;2017-03-24-10-46-55;6,0;13,0;-100;3,0;1,0;2,0;0,0;row;0,0;False;False;False;1,15100002289;True;1,25999999046
SBS1992w;game;2017-03-24-10-46-55;6,0;14,0;-100;0,0;3,0;2,0;1,0;row;0,0;False;False;False;1,21700000763;True;1,06200003624
SBS1992w;game;2017-03-24-10-46-55;6,0;15,0;-100;1,0;2,0;3,0;0,0;row;0,0;True;True;False;1,51699995995;False;0,798000097275
SBS1992w;game;2017-03-24-10-46-55;6,0;16,0;-100;3,0;0,0;2,0;1,0;column;0,0;False;True;True;1,38400006294;False;1,4390001297
SBS1992w;game;2017-03-24-10-46-55;6,0;17,0;-100;1,0;3,0;2,0;0,0;column;0,0;False;True;False;1,44999980927;True;1,19099998474
SBS1992w;game;2017-03-24-10-46-55;6,0;18,0;-100;1,0;2,0;3,0;0,0;row;0,0;False;True;False;1,01699995995;True;0,970999956131
SBS1992w;game;2017-03-24-10-46-55;6,0;19,0;-100;2,0;0,0;3,0;1,0;row;1,0;True;False;True;0,882999897003;True;1,25999999046
SBS1992w;game;2017-03-24-10-46-55;6,0;20,0;-100;1,0;0,0;2,0;3,0;column;1,0;False;True;True;1,14899992943;False;0,837999820709
SBS1992w;game;2017-03-24-10-46-55;6,0;21,0;-100;0,0;3,0;2,0;1,0;column;1,0;False;False;False;0,950000047684;True;1,06599998474
SBS1992w;game;2017-03-24-10-46-55;6,0;22,0;-100;2,0;1,0;0,0;3,0;column;0,0;True;False;True;2,0490000248;True;1,06600022316
SBS1992w;game;2017-03-24-10-46-55;6,0;23,0;-100;0,0;2,0;1,0;3,0;row;1,0;False;True;False;1,21700000763;True;1,3710000515
SBS1992w;game;2017-03-24-10-46-55;6,0;24,0;-100;2,0;0,0;1,0;3,0;row;1,0;False;False;False;1,01699995995;True;0,697999954224
SBS1992w;game;2017-03-24-10-46-55;6,0;25,0;-100;1,0;0,0;2,0;3,0;row;1,0;True;True;True;1,44899988174;True;0,891999959946
SBS1992w;game;2017-03-24-10-46-55;6,0;26,0;-100;1,0;2,0;3,0;0,0;column;1,0;False;False;False;0,882000207901;True;1,36599993706
SBS1992w;game;2017-03-24-10-46-55;6,0;27,0;-100;0,0;1,0;2,0;3,0;column;0,0;False;True;False;0,983000040054;True;0,594000101089
SBS1992w;game;2017-03-24-10-46-55;6,0;28,0;-100;3,0;1,0;0,0;2,0;row;0,0;True;False;False;1,34899997711;False;1,12699985504
SBS1992w;game;2017-03-24-10-46-55;6,0;29,0;-100;1,0;0,0;2,0;3,0;column;0,0;False;True;False;1,64899992943;True;1,17300009727
SBS1992w;game;2017-03-24-10-46-55;6,0;30,0;-100;1,0;0,0;3,0;2,0;column;0,0;True;False;False;1,18299984932;False;0,697999954224
SBS1992w;game;2017-03-24-10-46-55;6,0;31,0;-100;1,0;3,0;0,0;2,0;row;0,0;False;False;False;1,84999990463;True;1,02500009537
SBS1992w;game;2017-03-24-10-46-55;6,0;32,0;-100;1,0;2,0;0,0;3,0;column;0,0;True;True;True;1,71499991417;True;1,09599995613
SBS1992w;game;2017-03-24-10-46-55;6,0;33,0;-100;0,0;2,0;3,0;1,0;row;0,0;True;True;False;1,25;False;1,26700019836
SBS1992w;game;2017-03-24-10-46-55;6,0;34,0;-100;0,0;2,0;1,0;3,0;column;1,0;True;False;True;0,950000047684;True;0,891999959946
SBS1992w;game;2017-03-24-10-46-55;6,0;35,0;-100;3,0;1,0;0,0;2,0;column;0,0;False;True;False;1,08200001717;True;1,35899996758
SBS1992w;game;2017-03-24-10-46-55;6,0;36,0;-100;1,0;2,0;3,0;0,0;row;1,0;False;False;False;0,816999912262;True;0,961999893188
SBS1992w;game;2017-03-24-10-46-55;6,0;37,0;-100;0,0;2,0;3,0;1,0;column;0,0;False;True;False;0,749000072479;True;0,996999979019
SBS1992w;game;2017-03-24-10-46-55;6,0;38,0;-100;3,0;1,0;2,0;0,0;column;1,0;False;True;True;2,01600003242;False;0,894000053406
SBS1992w;game;2017-03-24-10-46-55;6,0;39,0;-100;1,0;2,0;0,0;3,0;column;0,0;False;True;True;1,04999995232;False;1,26000022888
SBS1992w;game;2017-03-24-10-46-55;6,0;40,0;-100;2,0;3,0;0,0;1,0;column;1,0;False;True;False;1,55100011826;True;1,49899983406
SBS1992w;game;2017-03-24-10-46-55;6,0;41,0;-100;0,0;1,0;3,0;2,0;row;0,0;True;False;False;1,08300018311;False;0,693000078201
SBS1992w;game;2017-03-24-10-46-55;6,0;42,0;-100;2,0;0,0;1,0;3,0;column;0,0;True;True;True;1,08399987221;True;1,29999995232
SBS1992w;game;2017-03-24-10-46-55;6,0;43,0;-100;3,0;1,0;2,0;0,0;row;0,0;True;True;False;1,01600003242;False;1,16900014877
SBS1992w;game;2017-03-24-10-46-55;6,0;44,0;-100;2,0;1,0;3,0;0,0;row;0,0;False;False;False;1,41600012779;True;0,892999887466
SBS1992w;game;2017-03-24-10-46-55;6,0;45,0;-100;2,0;0,0;3,0;1,0;row;1,0;False;False;False;1,34899997711;True;1,40199995041
SBS1992w;game;2017-03-24-10-46-55;6,0;46,0;-100;0,0;3,0;1,0;2,0;row;1,0;True;False;True;0,780999898911;True;1,26799988747
SBS1992w;game;2017-03-24-10-46-55;6,0;47,0;-100;1,0;0,0;2,0;3,0;row;0,0;False;False;False;1,0490000248;True;1,36500000954
SBS1992w;game;2017-03-24-10-46-55;6,0;48,0;-100;1,0;3,0;0,0;2,0;row;1,0;False;False;False;1,1819999218;True;0,968999862671
SBS1992w;game;2017-03-24-10-46-55;7,0;1,0;-100;0,0;1,0;2,0;3,0;row;1,0;False;True;False;1,0490000248;True;1,02999997139
SBS1992w;game;2017-03-24-10-46-55;7,0;2,0;-100;2,0;0,0;3,0;1,0;row;0,0;True;True;False;1,18300008774;False;0,800999879837
SBS1992w;game;2017-03-24-10-46-55;7,0;3,0;-100;2,0;0,0;3,0;1,0;column;1,0;True;False;True;0,914999961853;True;1,29399991035
SBS1992w;game;2017-03-24-10-46-55;7,0;4,0;-100;0,0;3,0;1,0;2,0;row;0,0;False;True;False;0,916000127792;True;1,32699990273
SBS1992w;game;2017-03-24-10-46-55;7,0;5,0;-100;1,0;0,0;2,0;3,0;row;0,0;True;False;False;0,849999904633;False;0,927000045776
SBS1992w;game;2017-03-24-10-46-55;7,0;6,0;-100;0,0;2,0;3,0;1,0;column;1,0;False;True;False;1,21700000763;True;0,799000024796
SBS1992w;game;2017-03-24-10-46-55;7,0;7,0;-100;3,0;1,0;2,0;0,0;column;0,0;False;False;False;1,78100013733;True;1,0039999485
SBS1992w;game;2017-03-24-10-46-55;7,0;8,0;-100;2,0;0,0;3,0;1,0;column;0,0;True;False;False;1,25;False;1,09800004959
SBS1992w;game;2017-03-24-10-46-55;7,0;9,0;-100;3,0;2,0;0,0;1,0;row;0,0;True;True;True;0,882999897003;True;1,22900009155
SBS1992w;game;2017-03-24-10-46-55;7,0;10,0;-100;2,0;3,0;1,0;0,0;column;1,0;True;False;True;1,31700015068;True;1,12700009346
SBS1992w;game;2017-03-24-10-46-55;7,0;11,0;-100;3,0;1,0;0,0;2,0;column;0,0;True;False;False;1,18300008774;False;0,862999916077
SBS1992w;game;2017-03-24-10-46-55;7,0;12,0;-100;3,0;0,0;2,0;1,0;column;1,0;False;True;False;1,91700005531;True;0,794000148773
SBS1992w;game;2017-03-24-10-46-55;7,0;13,0;-100;3,0;1,0;2,0;0,0;row;1,0;False;True;False;3,01600003242;True;1,36400008202
SBS1992w;game;2017-03-24-10-46-55;7,0;14,0;-100;1,0;2,0;0,0;3,0;column;1,0;False;True;False;1,34899997711;True;0,927000045776
SBS1992w;game;2017-03-24-10-46-55;7,0;15,0;-100;2,0;1,0;0,0;3,0;row;0,0;False;True;False;1,21700000763;True;0,798000097275
SBS1992w;game;2017-03-24-10-46-55;7,0;16,0;-100;1,0;3,0;2,0;0,0;row;0,0;True;True;True;0,982000112534;True;1,05900001526
SBS1992w;game;2017-03-24-10-46-55;7,0;17,0;-100;3,0;0,0;2,0;1,0;column;0,0;True;False;True;2,617000103;True;1,22900009155
SBS1992w;game;2017-03-24-10-46-55;7,0;18,0;-100;0,0;2,0;1,0;3,0;row;0,0;True;True;True;0,782999992371;True;0,888000011444
SBS1992w;game;2017-03-24-10-46-55;7,0;19,0;-100;2,0;3,0;1,0;0,0;column;1,0;False;True;False;1,28200006485;True;1,1970000267
SBS1992w;game;2017-03-24-10-46-55;7,0;20,0;-100;2,0;3,0;1,0;0,0;row;0,0;True;True;True;0,782999992371;True;0,766000032425
SBS1992w;game;2017-03-24-10-46-55;7,0;21,0;-100;0,0;3,0;1,0;2,0;column;0,0;True;True;True;1,08300018311;True;1,25999999046
SBS1992w;game;2017-03-24-10-46-55;7,0;22,0;-100;2,0;1,0;3,0;0,0;column;1,0;True;False;True;0,816999912262;True;1,49100017548
SBS1992w;game;2017-03-24-10-46-55;7,0;23,0;-100;0,0;2,0;1,0;3,0;column;0,0;True;False;False;2,64899992943;False;0,962999820709
SBS1992w;game;2017-03-24-10-46-55;7,0;24,0;-100;3,0;2,0;1,0;0,0;row;1,0;True;False;True;1,117000103;True;1,49099993706
SBS1992w;game;2017-03-24-10-46-55;7,0;25,0;-100;2,0;1,0;3,0;0,0;column;0,0;False;True;True;1,08300018311;False;0,661000013351
SBS1992w;game;2017-03-24-10-46-55;7,0;26,0;-100;0,0;3,0;2,0;1,0;row;1,0;True;True;False;1,48300004005;False;1,29700016975
SBS1992w;game;2017-03-24-10-46-55;7,0;27,0;-100;2,0;1,0;3,0;0,0;row;1,0;False;True;True;1,68300008774;False;0,866000175476
SBS1992w;game;2017-03-24-10-46-55;7,0;28,0;-100;2,0;1,0;3,0;0,0;row;1,0;True;False;True;1,58300018311;True;0,990999937057
SBS1992w;game;2017-03-24-10-46-55;7,0;29,0;-100;0,0;1,0;3,0;2,0;column;0,0;False;False;False;1,81700015068;True;1,25899982452
SBS1992w;game;2017-03-24-10-46-55;7,0;30,0;-100;3,0;0,0;1,0;2,0;row;1,0;False;False;False;1,75099992752;True;1,03499984741
SBS1992w;game;2017-03-24-10-46-55;7,0;31,0;-100;3,0;1,0;0,0;2,0;row;1,0;False;False;False;1,38400006294;True;0,862999916077
SBS1992w;game;2017-03-24-10-46-55;7,0;32,0;-100;0,0;1,0;3,0;2,0;row;1,0;True;False;True;0,815999984741;True;0,930999994278
SBS1992w;game;2017-03-24-10-46-55;7,0;33,0;-100;2,0;1,0;0,0;3,0;row;0,0;True;False;False;1,41700005531;False;1,49800014496
SBS1992w;game;2017-03-24-10-46-55;7,0;34,0;-100;0,0;3,0;2,0;1,0;column;1,0;True;True;True;0,883999824524;True;0,805999994278
SBS1992w;game;2017-03-24-10-46-55;7,0;35,0;-100;3,0;2,0;1,0;0,0;row;1,0;False;False;False;1,28399991989;True;0,559000015259
SBS1992w;game;2017-03-24-10-46-55;7,0;36,0;-100;0,0;1,0;2,0;3,0;row;0,0;False;True;False;1,11400008202;True;1,22799992561
SBS1992w;game;2017-03-24-10-46-55;7,0;37,0;-100;2,0;0,0;3,0;1,0;row;0,0;False;False;False;1,75;True;0,797999858856
SBS1992w;game;2017-03-24-10-46-55;7,0;38,0;-100;3,0;2,0;0,0;1,0;row;1,0;False;True;False;1,28099989891;True;1,33200001717
SBS1992w;game;2017-03-24-10-46-55;7,0;39,0;-100;1,0;0,0;3,0;2,0;column;1,0;True;False;False;1,35099983215;False;0,901000022888
SBS1992w;game;2017-03-24-10-46-55;7,0;40,0;-100;0,0;3,0;1,0;2,0;column;0,0;False;False;False;1,31699991226;True;0,59600019455
SBS1992w;game;2017-03-24-10-46-55;7,0;41,0;-100;0,0;2,0;3,0;1,0;column;1,0;True;False;False;1,34899997711;False;1,02900004387
SBS1992w;game;2017-03-24-10-46-55;7,0;42,0;-100;2,0;0,0;1,0;3,0;row;1,0;True;True;True;0,950999975204;True;0,664999961853
SBS1992w;game;2017-03-24-10-46-55;7,0;43,0;-100;0,0;3,0;1,0;2,0;column;1,0;False;False;False;1,25099992752;True;1,32700014114
SBS1992w;game;2017-03-24-10-46-55;7,0;44,0;-100;2,0;3,0;1,0;0,0;row;1,0;False;False;False;1,1819999218;True;1,29600000381
SBS1992w;game;2017-03-24-10-46-55;7,0;45,0;-100;0,0;2,0;1,0;3,0;column;0,0;False;True;False;0,848999977112;True;0,730999946594
SBS1992w;game;2017-03-24-10-46-55;7,0;46,0;-100;1,0;2,0;3,0;0,0;column;0,0;True;False;False;0,950000047684;False;0,692000150681
SBS1992w;game;2017-03-24-10-46-55;7,0;47,0;-100;3,0;0,0;1,0;2,0;column;1,0;False;True;True;1,15000009537;False;1,00600004196
SBS1992w;game;2017-03-24-10-46-55;7,0;48,0;-100;1,0;2,0;3,0;0,0;column;1,0;True;True;True;1,28400015831;True;1,02999997139
SBS1992w;game;2017-03-24-10-46-55;8,0;1,0;1000;3,0;0,0;2,0;1,0;row;0,0;True;False;True;2,16599988937;True;0,692999839783
SBS1992w;game;2017-03-24-10-46-55;8,0;2,0;1000;3,0;1,0;0,0;2,0;column;0,0;True;True;True;1,0;True;0,604999780655
SBS1992w;game;2017-03-24-10-46-55;8,0;3,0;1000;3,0;2,0;1,0;0,0;column;1,0;True;True;True;1,43099999428;True;1,12400007248
SBS1992w;game;2017-03-24-10-46-55;8,0;4,0;1000;2,0;1,0;3,0;0,0;row;1,0;True;True;True;1,06599998474;True;1,26200008392
SBS1992w;game;2017-03-24-10-46-55;8,0;5,0;1000;2,0;3,0;1,0;0,0;row;1,0;False;False;False;1,73300004005;True;0,931999921799
SBS1992w;game;2017-03-24-10-46-55;8,0;6,0;1000;1,0;3,0;0,0;2,0;row;0,0;True;True;True;0,867000102997;True;0,707000017166
SBS1992w;game;2017-03-24-10-46-55;8,0;7,0;1000;3,0;2,0;0,0;1,0;row;1,0;True;True;True;1,43299984932;True;0,87099981308
SBS1992w;game;2017-03-24-10-46-55;8,0;8,0;1000;2,0;1,0;0,0;3,0;row;0,0;False;False;False;1,59999990463;True;0,892000198364
SBS1992w;game;2017-03-24-10-46-55;8,0;9,0;1000;2,0;0,0;1,0;3,0;column;0,0;False;False;False;1,43300008774;True;1,46399998665
SBS1992w;game;2017-03-24-10-46-55;8,0;10,0;1000;1,0;0,0;2,0;3,0;row;0,0;False;False;False;1,33100008965;True;0,971999883652
SBS1992w;game;2017-03-24-10-46-55;8,0;11,0;1000;3,0;1,0;0,0;2,0;row;1,0;False;True;False;2,36800003052;True;1,23600006104
SBS1992w;game;2017-03-24-10-46-55;8,0;12,0;1000;0,0;1,0;3,0;2,0;row;0,0;False;True;False;2,5;True;0,858000040054
SBS1992w;game;2017-03-24-10-46-55;8,0;13,0;1000;2,0;1,0;3,0;0,0;column;0,0;False;True;False;2,40000009537;True;1,13700008392
SBS1992w;game;2017-03-24-10-46-55;8,0;14,0;1000;1,0;0,0;3,0;2,0;row;1,0;True;False;True;1,83299994469;True;0,794000148773
SBS1992w;game;2017-03-24-10-46-55;8,0;15,0;1000;2,0;3,0;1,0;0,0;row;1,0;True;False;True;1,89800000191;True;0,735000133514
SBS1992w;game;2017-03-24-10-46-55;8,0;16,0;1000;0,0;1,0;3,0;2,0;column;1,0;False;False;False;1,73300004005;True;0,529000043869
SBS1992w;game;2017-03-24-10-46-55;8,0;17,0;1000;3,0;1,0;0,0;2,0;column;0,0;False;False;False;1,70000004768;True;1,125
SBS1992w;game;2017-03-24-10-46-55;8,0;18,0;1000;2,0;3,0;1,0;0,0;column;0,0;False;False;False;1,5;True;1,12599992752
SBS1992w;game;2017-03-24-10-46-55;8,0;19,0;1000;2,0;1,0;3,0;0,0;row;0,0;True;False;True;2,10000014305;True;1,40100002289
SBS1992w;game;2017-03-24-10-46-55;8,0;20,0;1000;0,0;1,0;2,0;3,0;row;1,0;False;False;False;2,36600017548;True;1,39899992943
SBS1992w;game;2017-03-24-10-46-55;8,0;21,0;1000;0,0;3,0;1,0;2,0;column;0,0;True;True;True;1,03200006485;True;0,661999940872
SBS1992w;game;2017-03-24-10-46-55;8,0;22,0;1000;1,0;2,0;0,0;3,0;row;1,0;True;False;True;1,26699995995;True;1,35500001907
SBS1992w;game;2017-03-24-10-46-55;8,0;23,0;1000;2,0;1,0;0,0;3,0;row;0,0;True;False;True;2,30000019073;True;0,628999948502
SBS1992w;game;2017-03-24-10-46-55;8,0;24,0;1000;0,0;3,0;2,0;1,0;row;0,0;True;True;True;2,59899997711;True;1,26999998093
SBS1992w;game;2017-03-24-10-46-55;8,0;25,0;1000;0,0;1,0;3,0;2,0;column;0,0;True;True;True;0,999000072479;True;1,00300002098
SBS1992w;game;2017-03-24-10-46-55;8,0;26,0;1000;3,0;2,0;0,0;1,0;column;0,0;True;True;True;0,733000040054;True;0,625
SBS1992w;game;2017-03-24-10-46-55;8,0;27,0;1000;1,0;0,0;3,0;2,0;column;1,0;True;False;True;1,30000019073;True;1,25999999046
SBS1992w;game;2017-03-24-10-46-55;8,0;28,0;1000;1,0;3,0;2,0;0,0;column;1,0;False;False;False;1,76600003242;True;1,35899996758
SBS1992w;game;2017-03-24-10-46-55;8,0;29,0;1000;1,0;3,0;0,0;2,0;column;1,0;True;False;True;1,69999980927;True;1,49699997902
SBS1992w;game;2017-03-24-10-46-55;8,0;30,0;1000;1,0;0,0;2,0;3,0;row;1,0;False;True;False;2,96600008011;True;0,762000083923
SBS1992w;game;2017-03-24-10-46-55;8,0;31,0;1000;1,0;0,0;3,0;2,0;column;0,0;True;False;True;2,66599988937;True;0,861000061035
SBS1992w;game;2017-03-24-10-46-55;8,0;32,0;1000;3,0;2,0;1,0;0,0;row;0,0;False;False;False;2,43300008774;True;1,26499986649
SBS1992w;game;2017-03-24-10-46-55;8,0;33,0;1000;0,0;1,0;2,0;3,0;row;0,0;True;False;True;1,56699991226;True;1,16200017929
SBS1992w;game;2017-03-24-10-46-55;8,0;34,0;1000;3,0;1,0;2,0;0,0;column;0,0;False;False;False;1,70000004768;True;1,10400009155
SBS1992w;game;2017-03-24-10-46-55;8,0;35,0;1000;2,0;0,0;1,0;3,0;row;1,0;False;True;False;1,7990000248;True;0,760999917984
SBS1992w;game;2017-03-24-10-46-55;8,0;36,0;1000;2,0;3,0;0,0;1,0;column;0,0;False;True;False;3,26699995995;True;0,598000049591
SBS1992w;game;2017-03-24-10-46-55;8,0;37,0;1000;0,0;2,0;3,0;1,0;row;1,0;True;True;True;1,79999995232;True;1,39300012589
SBS1992w;game;2017-03-24-10-46-55;8,0;38,0;1000;0,0;3,0;2,0;1,0;row;1,0;False;True;False;3,367000103;True;1,3639998436
SBS1992w;game;2017-03-24-10-46-55;8,0;39,0;1000;0,0;2,0;3,0;1,0;column;0,0;False;True;False;2,23399996758;True;1,17300009727
SBS1992w;game;2017-03-24-10-46-55;8,0;40,0;1000;1,0;2,0;3,0;0,0;column;1,0;True;True;True;1,03399991989;True;0,628000020981
SBS1992w;game;2017-03-24-10-46-55;8,0;41,0;1000;2,0;1,0;0,0;3,0;column;1,0;True;False;True;2,79999995232;True;1,16400003433
SBS1992w;game;2017-03-24-10-46-55;8,0;42,0;1000;1,0;2,0;0,0;3,0;row;1,0;False;False;False;2,70000004768;True;0,628000020981
SBS1992w;game;2017-03-24-10-46-55;8,0;43,0;1000;3,0;1,0;2,0;0,0;column;0,0;True;True;True;1,2009999752;True;1,4960000515
SBS1992w;game;2017-03-24-10-46-55;8,0;44,0;1000;1,0;0,0;2,0;3,0;row;1,0;True;False;True;1,16699981689;True;1,19400000572
SBS1992w;game;2017-03-24-10-46-55;8,0;45,0;1000;2,0;0,0;1,0;3,0;column;1,0;True;True;True;1,40000009537;True;0,898000001907
SBS1992w;game;2017-03-24-10-46-55;8,0;46,0;1000;0,0;3,0;1,0;2,0;row;1,0;True;True;True;1,26600003242;True;1,42499995232
SBS1992w;game;2017-03-24-10-46-55;8,0;47,0;1000;3,0;1,0;0,0;2,0;row;0,0;False;True;False;3,20000004768;True;1,26399993896
SBS1992w;game;2017-03-24-10-46-55;8,0;48,0;1000;3,0;0,0;2,0;1,0;column;1,0;True;False;True;1,70000004768;True;1,12800002098
SBS1992w;game;2017-03-24-10-46-55;9,0;1,0;100;0,0;2,0;3,0;1,0;column;1,0;True;False;True;1,66700005531;True;1,43300008774
SBS1992w;game;2017-03-24-10-46-55;9,0;2,0;100;1,0;3,0;2,0;0,0;column;0,0;True;True;True;1,56700015068;True;0,826999902725
SBS1992w;game;2017-03-24-10-46-55;9,0;3,0;100;1,0;2,0;0,0;3,0;row;0,0;False;False;True;1,5;False;0,861000061035
SBS1992w;game;2017-03-24-10-46-55;9,0;4,0;100;0,0;2,0;1,0;3,0;column;0,0;False;False;False;1,40000009537;True;1,3639998436
SBS1992w;game;2017-03-24-10-46-55;9,0;5,0;100;0,0;3,0;1,0;2,0;row;0,0;False;False;False;2,06599998474;True;1,4279999733
SBS1992w;game;2017-03-24-10-46-55;9,0;6,0;100;0,0;3,0;2,0;1,0;column;1,0;False;False;False;2,03299999237;True;1,36500000954
SBS1992w;game;2017-03-24-10-46-55;9,0;7,0;100;2,0;3,0;0,0;1,0;column;0,0;False;True;False;1,80000019073;True;1,20200014114
SBS1992w;game;2017-03-24-10-46-55;9,0;8,0;100;1,0;3,0;0,0;2,0;row;1,0;True;False;True;0,932999849319;True;1,49900007248
SBS1992w;game;2017-03-24-10-46-55;9,0;9,0;100;1,0;3,0;0,0;2,0;row;1,0;False;False;False;2,03299999237;True;0,526000022888
SBS1992w;game;2017-03-24-10-46-55;9,0;10,0;100;3,0;2,0;1,0;0,0;column;0,0;False;False;False;2,132999897;True;1,12399983406
SBS1992w;game;2017-03-24-10-46-55;9,0;11,0;100;3,0;1,0;2,0;0,0;column;1,0;True;True;True;2,93400001526;True;1,06500005722
SBS1992w;game;2017-03-24-10-46-55;9,0;12,0;100;1,0;3,0;2,0;0,0;row;1,0;True;False;True;0,932999849319;True;1,12600016594
SBS1992w;game;2017-03-24-10-46-55;9,0;13,0;100;3,0;0,0;1,0;2,0;row;1,0;False;False;False;1,66700005531;True;1,07000017166
SBS1992w;game;2017-03-24-10-46-55;9,0;14,0;100;3,0;0,0;1,0;2,0;column;1,0;False;False;False;2,06699991226;True;1,16699981689
SBS1992w;game;2017-03-24-10-46-55;9,0;15,0;100;2,0;0,0;1,0;3,0;column;0,0;False;True;False;2,53299999237;True;1,46899986267
SBS1992w;game;2017-03-24-10-46-55;9,0;16,0;100;3,0;0,0;2,0;1,0;row;1,0;False;False;False;2,10000014305;True;1,29699993134
SBS1992w;game;2017-03-24-10-46-55;9,0;17,0;100;0,0;2,0;1,0;3,0;row;1,0;True;False;True;2,60099983215;True;0,828000068665
SBS1992w;game;2017-03-24-10-46-55;9,0;18,0;100;2,0;0,0;3,0;1,0;row;1,0;False;True;False;1,56699991226;True;1,40100002289
SBS1992w;game;2017-03-24-10-46-55;9,0;19,0;100;3,0;1,0;0,0;2,0;row;1,0;True;False;True;1,93300008774;True;0,698000192642
SBS1992w;game;2017-03-24-10-46-55;9,0;20,0;100;0,0;1,0;2,0;3,0;row;0,0;True;True;False;1,83299994469;False;0,827000141144
SBS1992w;game;2017-03-24-10-46-55;9,0;21,0;100;3,0;2,0;0,0;1,0;column;0,0;True;False;False;1,23300004005;False;1,06199979782
SBS1992w;game;2017-03-24-10-46-55;9,0;22,0;100;1,0;2,0;3,0;0,0;column;1,0;True;True;True;1,76600003242;True;1,05799984932
SBS1992w;game;2017-03-24-10-46-55;9,0;23,0;100;3,0;0,0;1,0;2,0;row;0,0;False;True;False;1,867000103;True;1,10300016403
SBS1992w;game;2017-03-24-10-46-55;9,0;24,0;100;2,0;0,0;3,0;1,0;column;1,0;False;False;False;2,06699991226;True;0,828000068665
SBS1992w;game;2017-03-24-10-46-55;9,0;25,0;100;3,0;2,0;1,0;0,0;column;1,0;True;False;True;1,29999995232;True;1,26700019836
SBS1992w;game;2017-03-24-10-46-55;9,0;26,0;100;2,0;1,0;0,0;3,0;row;1,0;True;True;True;0,964999914169;True;1,2650001049
SBS1992w;game;2017-03-24-10-46-55;9,0;27,0;100;3,0;0,0;1,0;2,0;row;1,0;True;False;True;0,967000007629;True;0,625
SBS1992w;game;2017-03-24-10-46-55;9,0;28,0;100;1,0;0,0;2,0;3,0;row;0,0;True;True;True;2,13399982452;True;0,996999979019
SBS1992w;game;2017-03-24-10-46-55;9,0;29,0;100;0,0;1,0;2,0;3,0;row;1,0;False;False;False;1,96700000763;True;1,05999994278
SBS1992w;game;2017-03-24-10-46-55;9,0;30,0;100;2,0;0,0;1,0;3,0;column;1,0;False;False;False;1,90000009537;True;1,33800005913
SBS1992w;game;2017-03-24-10-46-55;9,0;31,0;100;2,0;1,0;0,0;3,0;column;1,0;True;False;True;1,60000014305;True;1,46500015259
SBS1992w;game;2017-03-24-10-46-55;9,0;32,0;100;1,0;3,0;0,0;2,0;row;0,0;False;False;False;2,23300004005;True;0,768999814987
SBS1992w;game;2017-03-24-10-46-55;9,0;33,0;100;2,0;3,0;0,0;1,0;row;1,0;True;False;True;1,56500005722;True;0,62700009346
SBS1992w;game;2017-03-24-10-46-55;9,0;34,0;100;3,0;2,0;1,0;0,0;column;1,0;False;True;False;1,90000009537;True;1,43299984932
SBS1992w;game;2017-03-24-10-46-55;9,0;35,0;100;1,0;2,0;0,0;3,0;column;1,0;False;True;False;2,99899983406;True;1,06500005722
SBS1992w;game;2017-03-24-10-46-55;9,0;36,0;100;0,0;1,0;2,0;3,0;column;0,0;True;True;True;2,30000019073;True;0,861999988556
SBS1992w;game;2017-03-24-10-46-55;9,0;37,0;100;2,0;3,0;1,0;0,0;row;1,0;True;False;True;3,13300013542;True;0,762999773026
SBS1992w;game;2017-03-24-10-46-55;9,0;38,0;100;1,0;0,0;2,0;3,0;column;0,0;True;False;True;3,06699991226;True;0,631000041962
SBS1992w;game;2017-03-24-10-46-55;9,0;39,0;100;3,0;1,0;0,0;2,0;column;1,0;False;True;False;1,83400011063;True;0,960999965668
SBS1992w;game;2017-03-24-10-46-55;9,0;40,0;100;0,0;2,0;1,0;3,0;row;0,0;True;False;False;1,367000103;False;0,532999992371
SBS1992w;game;2017-03-24-10-46-55;9,0;41,0;100;1,0;2,0;0,0;3,0;row;1,0;True;False;True;1,63400006294;True;1,02600002289
SBS1992w;game;2017-03-24-10-46-55;9,0;42,0;100;3,0;2,0;0,0;1,0;row;0,0;True;False;False;2,46599984169;False;1,36599993706
SBS1992w;game;2017-03-24-10-46-55;9,0;43,0;100;0,0;3,0;1,0;2,0;column;0,0;False;False;False;1,26700019836;True;0,865999937057
SBS1992w;game;2017-03-24-10-46-55;9,0;44,0;100;3,0;0,0;1,0;2,0;column;1,0;True;False;True;1,0;True;0,601000070572
SBS1992w;game;2017-03-24-10-46-55;9,0;45,0;100;0,0;1,0;3,0;2,0;row;1,0;False;True;False;1,19900012016;True;0,993000030518
SBS1992w;game;2017-03-24-10-46-55;9,0;46,0;100;2,0;0,0;3,0;1,0;column;0,0;True;False;False;1,30099987984;False;1,06500005722
SBS1992w;game;2017-03-24-10-46-55;9,0;47,0;100;2,0;1,0;0,0;3,0;column;0,0;False;True;False;1,60199999809;True;0,861999988556
SBS1992w;game;2017-03-24-10-46-55;9,0;48,0;100;1,0;2,0;0,0;3,0;row;1,0;False;True;False;4,5;True;1,09299993515
SBS1992w;game;2017-03-24-10-46-55;10,0;1,0;-100;2,0;3,0;1,0;0,0;column;0,0;False;False;False;1,04799985886;True;1,16799998283
SBS1992w;game;2017-03-24-10-46-55;10,0;2,0;-100;0,0;1,0;3,0;2,0;column;1,0;True;False;True;0,883000135422;True;0,895999908447
SBS1992w;game;2017-03-24-10-46-55;10,0;3,0;-100;1,0;2,0;3,0;0,0;column;0,0;False;False;False;1,382999897;True;0,628000020981
SBS1992w;game;2017-03-24-10-46-55;10,0;4,0;-100;3,0;1,0;0,0;2,0;column;1,0;False;True;False;1,78400015831;True;1,32800006866
SBS1992w;game;2017-03-24-10-46-55;10,0;5,0;-100;2,0;1,0;0,0;3,0;row;1,0;True;False;True;1,11500000954;True;0,699000120163
SBS1992w;game;2017-03-24-10-46-55;10,0;6,0;-100;1,0;0,0;3,0;2,0;row;1,0;False;True;False;1,617000103;True;0,62900018692
SBS1992w;game;2017-03-24-10-46-55;10,0;7,0;-100;1,0;2,0;0,0;3,0;column;1,0;True;False;True;0,782999992371;True;0,762000083923
SBS1992w;game;2017-03-24-10-46-55;10,0;8,0;-100;2,0;3,0;0,0;1,0;row;1,0;True;False;True;1,28299999237;True;0,767999887466
SBS1992w;game;2017-03-24-10-46-55;10,0;9,0;-100;3,0;2,0;1,0;0,0;column;1,0;False;False;False;1,44799995422;True;0,59700012207
SBS1992w;game;2017-03-24-10-46-55;10,0;10,0;-100;2,0;1,0;3,0;0,0;column;0,0;True;True;True;1,21700000763;True;0,798999786377
SBS1992w;game;2017-03-24-10-46-55;10,0;11,0;-100;1,0;0,0;2,0;3,0;column;0,0;True;True;False;1,11599993706;False;1,49500012398
SBS1992w;game;2017-03-24-10-46-55;10,0;12,0;-100;2,0;3,0;1,0;0,0;column;0,0;True;False;True;1,21700000763;True;0,699999809265
SBS1992w;game;2017-03-24-10-46-55;10,0;13,0;-100;1,0;0,0;3,0;2,0;row;1,0;True;True;True;1,28200006485;True;1,2650001049
SBS1992w;game;2017-03-24-10-46-55;10,0;14,0;-100;3,0;0,0;2,0;1,0;row;1,0;True;False;True;0,714999914169;True;1,02699995041
SBS1992w;game;2017-03-24-10-46-55;10,0;15,0;-100;2,0;0,0;1,0;3,0;column;1,0;True;True;True;1,05000019073;True;1,06199979782
SBS1992w;game;2017-03-24-10-46-55;10,0;16,0;-100;1,0;2,0;0,0;3,0;row;1,0;False;False;False;1,24900007248;True;1,32400012016
SBS1992w;game;2017-03-24-10-46-55;10,0;17,0;-100;3,0;2,0;0,0;1,0;column;1,0;False;False;False;1,28299999237;True;0,658000230789
SBS1992w;game;2017-03-24-10-46-55;10,0;18,0;-100;0,0;1,0;2,0;3,0;row;1,0;True;True;True;1,14899992943;True;1,49099993706
SBS1992w;game;2017-03-24-10-46-55;10,0;19,0;-100;0,0;2,0;3,0;1,0;column;0,0;True;True;True;0,983000040054;True;0,667000055313
SBS1992w;game;2017-03-24-10-46-55;10,0;20,0;-100;3,0;1,0;2,0;0,0;row;1,0;True;False;True;0,815999984741;True;1,13499999046
SBS1992w;game;2017-03-24-10-46-55;10,0;21,0;-100;2,0;1,0;3,0;0,0;column;1,0;False;True;False;1,72199988365;True;1,19099998474
SBS1992w;game;2017-03-24-10-46-55;10,0;22,0;-100;3,0;2,0;0,0;1,0;row;1,0;True;False;False;1,48300004005;False;0,762000083923
SBS1992w;game;2017-03-24-10-46-55;10,0;23,0;-100;2,0;3,0;0,0;1,0;row;0,0;False;True;False;1,48300004005;True;1,13399982452
SBS1992w;game;2017-03-24-10-46-55;10,0;24,0;-100;1,0;3,0;2,0;0,0;column;1,0;True;True;False;1,15000009537;False;0,62900018692
SBS1992w;game;2017-03-24-10-46-55;10,0;25,0;-100;1,0;0,0;2,0;3,0;column;1,0;True;False;True;0,848000049591;True;1,25900006294
SBS1992w;game;2017-03-24-10-46-55;10,0;26,0;-100;3,0;1,0;2,0;0,0;column;1,0;True;False;False;0,983999967575;False;1,32899999619
SBS1992w;game;2017-03-24-10-46-55;10,0;27,0;-100;2,0;3,0;1,0;0,0;row;1,0;True;False;True;0,884000062943;True;0,902000188828
SBS1992w;game;2017-03-24-10-46-55;10,0;28,0;-100;1,0;3,0;2,0;0,0;row;1,0;True;True;True;1,51699995995;True;1,39600014687
SBS1992w;game;2017-03-24-10-46-55;10,0;29,0;-100;2,0;1,0;0,0;3,0;column;1,0;False;False;False;1,21499991417;True;0,667000055313
SBS1992w;game;2017-03-24-10-46-55;10,0;30,0;-100;3,0;0,0;2,0;1,0;row;0,0;False;True;False;2,38400006294;True;0,966000080109
SBS1992w;game;2017-03-24-10-46-55;10,0;31,0;-100;3,0;2,0;0,0;1,0;column;1,0;True;True;True;1,75;True;0,823999881744
SBS1992w;game;2017-03-24-10-46-55;10,0;32,0;-100;0,0;2,0;1,0;3,0;row;0,0;False;False;False;1,71600008011;True;0,826999902725
SBS1992w;game;2017-03-24-10-46-55;10,0;33,0;-100;0,0;2,0;1,0;3,0;row;1,0;True;False;True;1,117000103;True;1,12300014496
SBS1992w;game;2017-03-24-10-46-55;10,0;34,0;-100;2,0;0,0;1,0;3,0;row;0,0;True;True;True;0,914999961853;True;0,90499997139
SBS1992w;game;2017-03-24-10-46-55;10,0;35,0;-100;3,0;0,0;2,0;1,0;row;0,0;True;False;False;1,68300008774;False;1,10000014305
SBS1992w;game;2017-03-24-10-46-55;10,0;36,0;-100;2,0;1,0;0,0;3,0;column;1,0;True;False;True;0,75;True;1,367000103
SBS1992w;game;2017-03-24-10-46-55;10,0;37,0;-100;1,0;0,0;3,0;2,0;column;1,0;False;True;False;1,15100002289;True;1,36899995804
SBS1992w;game;2017-03-24-10-46-55;10,0;38,0;-100;1,0;3,0;0,0;2,0;column;0,0;False;False;False;1,78200006485;True;0,623999834061
SBS1992w;game;2017-03-24-10-46-55;10,0;39,0;-100;3,0;2,0;1,0;0,0;column;0,0;True;True;True;0,948999881744;True;0,700999975204
SBS1992w;game;2017-03-24-10-46-55;10,0;40,0;-100;3,0;1,0;2,0;0,0;column;0,0;True;False;True;2,01699995995;True;1,4240000248
SBS1992w;game;2017-03-24-10-46-55;10,0;41,0;-100;3,0;2,0;0,0;1,0;row;0,0;False;False;False;0,983999967575;True;1,03200006485
SBS1992w;game;2017-03-24-10-46-55;10,0;42,0;-100;1,0;3,0;0,0;2,0;column;1,0;True;True;False;0,917000055313;False;1,17299985886
SBS1992w;game;2017-03-24-10-46-55;10,0;43,0;-100;1,0;2,0;3,0;0,0;row;1,0;True;False;True;0,750999927521;True;0,694999933243
SBS1992w;game;2017-03-24-10-46-55;10,0;44,0;-100;2,0;1,0;3,0;0,0;row;0,0;True;True;True;0,917000055313;True;0,758999824524
SBS1992w;game;2017-03-24-10-46-55;10,0;45,0;-100;2,0;3,0;0,0;1,0;column;0,0;False;False;False;1,41400003433;True;1,36200022697
SBS1992w;game;2017-03-24-10-46-55;10,0;46,0;-100;2,0;0,0;1,0;3,0;column;0,0;False;False;False;0,78200006485;True;1,36500000954
SBS1992w;game;2017-03-24-10-46-55;10,0;47,0;-100;1,0;2,0;0,0;3,0;row;0,0;True;True;True;0,649000167847;True;1,05800008774
SBS1992w;game;2017-03-24-10-46-55;10,0;48,0;-100;3,0;2,0;1,0;0,0;column;0,0;False;False;False;1,01600003242;True;1,43099999428
SBS1992w;game;2017-03-24-10-46-55;11,0;1,0;100;0,0;1,0;2,0;3,0;row;1,0;True;True;True;0,996999979019;True;1,19499993324
SBS1992w;game;2017-03-24-10-46-55;11,0;2,0;100;1,0;3,0;2,0;0,0;row;0,0;False;False;False;1,43400001526;True;1,36900019646
SBS1992w;game;2017-03-24-10-46-55;11,0;3,0;100;2,0;0,0;3,0;1,0;row;0,0;False;True;False;0,866999864578;True;0,628999948502
SBS1992w;game;2017-03-24-10-46-55;11,0;4,0;100;2,0;3,0;1,0;0,0;row;1,0;False;True;False;1,23199987411;True;1,0600001812
SBS1992w;game;2017-03-24-10-46-55;11,0;5,0;100;2,0;1,0;0,0;3,0;row;0,0;False;True;False;1,76699995995;True;1,43400001526
SBS1992w;game;2017-03-24-10-46-55;11,0;6,0;100;2,0;1,0;0,0;3,0;row;1,0;False;True;False;1,132999897;True;1,26300001144
SBS1992w;game;2017-03-24-10-46-55;11,0;7,0;100;2,0;1,0;3,0;0,0;row;1,0;True;False;True;0,832999944687;True;0,662999868393
SBS1992w;game;2017-03-24-10-46-55;11,0;8,0;100;1,0;0,0;3,0;2,0;row;1,0;True;False;True;0,666999816895;True;1,29800009727
SBS1992w;game;2017-03-24-10-46-55;11,0;9,0;100;1,0;2,0;3,0;0,0;row;0,0;True;True;True;1,06599998474;True;0,966000080109
SBS1992w;game;2017-03-24-10-46-55;11,0;10,0;100;0,0;1,0;2,0;3,0;row;0,0;False;False;False;1,73400020599;True;0,664000034332
SBS1992w;game;2017-03-24-10-46-55;11,0;11,0;100;3,0;0,0;2,0;1,0;row;0,0;True;False;False;1,36699986458;False;1,26099991798
SBS1992w;game;2017-03-24-10-46-55;11,0;12,0;100;1,0;3,0;0,0;2,0;column;1,0;True;True;True;0,800000190735;True;0,734999895096
SBS1992w;game;2017-03-24-10-46-55;11,0;13,0;100;3,0;2,0;0,0;1,0;row;1,0;True;True;True;0,598999977112;True;0,887000083923
SBS1992w;game;2017-03-24-10-46-55;11,0;14,0;100;1,0;0,0;3,0;2,0;row;1,0;False;False;False;1,43300008774;True;1,26499986649
SBS1992w;game;2017-03-24-10-46-55;11,0;15,0;100;2,0;3,0;1,0;0,0;row;0,0;True;True;True;0,665999889374;True;0,865000009537
SBS1992w;game;2017-03-24-10-46-55;11,0;16,0;100;1,0;0,0;3,0;2,0;column;0,0;True;False;False;1,26600003242;False;0,759999990463
SBS1992w;game;2017-03-24-10-46-55;11,0;17,0;100;2,0;1,0;0,0;3,0;column;0,0;True;True;True;0,832999944687;True;0,725999832153
SBS1992w;game;2017-03-24-10-46-55;11,0;18,0;100;2,0;3,0;0,0;1,0;column;1,0;False;False;False;1,0;True;0,658999919891
SBS1992w;game;2017-03-24-10-46-55;11,0;19,0;100;0,0;2,0;1,0;3,0;row;1,0;False;False;False;1,60099983215;True;0,963000059128
SBS1992w;game;2017-03-24-10-46-55;11,0;20,0;100;3,0;0,0;2,0;1,0;column;0,0;True;True;True;0,667000055313;True;0,792000055313
SBS1992w;game;2017-03-24-10-46-55;11,0;21,0;100;1,0;0,0;3,0;2,0;column;1,0;True;True;True;1,23300004005;True;1,42700004578
SBS1992w;game;2017-03-24-10-46-55;11,0;22,0;100;0,0;1,0;3,0;2,0;column;1,0;True;True;False;1,39899992943;False;0,535000085831
SBS1992w;game;2017-03-24-10-46-55;11,0;23,0;100;0,0;1,0;3,0;2,0;column;1,0;False;False;False;1,49900007248;True;0,630000114441
SBS1992w;game;2017-03-24-10-46-55;11,0;24,0;100;1,0;3,0;2,0;0,0;column;1,0;False;False;False;1,23299980164;True;0,760999917984
SBS1992w;game;2017-03-24-10-46-55;11,0;25,0;100;1,0;2,0;0,0;3,0;column;0,0;False;True;False;1,23299980164;True;1,32799983025
SBS1992w;game;2017-03-24-10-46-55;11,0;26,0;100;1,0;0,0;3,0;2,0;row;0,0;True;True;True;0,832999944687;True;1,36100006104
SBS1992w;game;2017-03-24-10-46-55;11,0;27,0;100;0,0;1,0;3,0;2,0;row;0,0;True;False;True;2,50099992752;True;1,23099994659
SBS1992w;game;2017-03-24-10-46-55;11,0;28,0;100;1,0;0,0;2,0;3,0;row;1,0;True;True;True;0,900000095367;True;0,761999845505
SBS1992w;game;2017-03-24-10-46-55;11,0;29,0;100;2,0;3,0;1,0;0,0;column;0,0;True;False;False;1,16599988937;False;0,760999917984
SBS1992w;game;2017-03-24-10-46-55;11,0;30,0;100;3,0;1,0;0,0;2,0;row;0,0;False;True;False;1,20000004768;True;1,22599983215
SBS1992w;game;2017-03-24-10-46-55;11,0;31,0;100;0,0;2,0;1,0;3,0;column;1,0;False;True;False;1,76799988747;True;1,29500007629
SBS1992w;game;2017-03-24-10-46-55;11,0;32,0;100;2,0;1,0;3,0;0,0;column;1,0;True;False;True;0,699999809265;True;0,668999910355
SBS1992w;game;2017-03-24-10-46-55;11,0;33,0;100;1,0;0,0;3,0;2,0;column;0,0;False;False;False;0,766999959946;True;1,23199987411
SBS1992w;game;2017-03-24-10-46-55;11,0;34,0;100;1,0;0,0;3,0;2,0;row;0,0;False;False;False;2,06700015068;True;0,796999931335
SBS1992w;game;2017-03-24-10-46-55;11,0;35,0;100;0,0;2,0;3,0;1,0;column;0,0;True;False;False;1,33399987221;False;0,999000072479
SBS1992w;game;2017-03-24-10-46-55;11,0;36,0;100;0,0;3,0;2,0;1,0;column;0,0;True;True;True;1,5;True;1,30099987984
SBS1992w;game;2017-03-24-10-46-55;11,0;37,0;100;3,0;2,0;1,0;0,0;row;0,0;False;False;False;1,5;True;0,601000070572
SBS1992w;game;2017-03-24-10-46-55;11,0;38,0;100;3,0;1,0;2,0;0,0;column;0,0;False;True;True;2,7990000248;False;0,927000045776
SBS1992w;game;2017-03-24-10-46-55;11,0;39,0;100;0,0;3,0;1,0;2,0;row;1,0;True;False;True;1,30000019073;True;1,19600009918
SBS1992w;game;2017-03-24-10-46-55;11,0;40,0;100;2,0;1,0;3,0;0,0;row;1,0;False;True;False;1,16700005531;True;0,692000150681
SBS1992w;game;2017-03-24-10-46-55;11,0;41,0;100;2,0;1,0;3,0;0,0;row;0,0;True;False;True;2,46600008011;True;0,728999853134
SBS1992w;game;2017-03-24-10-46-55;11,0;42,0;100;0,0;3,0;2,0;1,0;column;0,0;False;False;False;1,63400006294;True;1,06399989128
SBS1992w;game;2017-03-24-10-46-55;11,0;43,0;100;2,0;1,0;0,0;3,0;row;0,0;True;True;True;1,10000014305;True;1,36500000954
SBS1992w;game;2017-03-24-10-46-55;11,0;44,0;100;1,0;0,0;2,0;3,0;row;1,0;False;True;False;1,79999995232;True;1,30000019073
SBS1992w;game;2017-03-24-10-46-55;11,0;45,0;100;2,0;1,0;3,0;0,0;row;0,0;False;False;False;1,23399996758;True;0,727999925613
SBS1992w;game;2017-03-24-10-46-55;11,0;46,0;100;2,0;0,0;3,0;1,0;column;0,0;False;True;False;2,06699991226;True;1,49399995804
SBS1992w;game;2017-03-24-10-46-55;11,0;47,0;100;1,0;3,0;2,0;0,0;column;0,0;False;True;False;1,632999897;True;1,16299986839
SBS1992w;game;2017-03-24-10-46-55;11,0;48,0;100;3,0;2,0;1,0;0,0;row;1,0;True;False;False;1,53299999237;False;1,2990000248
SBS1992w;game;2017-03-24-10-46-55;12,0;1,0;1000;1,0;0,0;2,0;3,0;column;1,0;False;False;False;1,7009999752;True;0,927999973297
SBS1992w;game;2017-03-24-10-46-55;12,0;2,0;1000;1,0;0,0;3,0;2,0;column;0,0;False;False;False;1,56699991226;True;0,734999895096
SBS1992w;game;2017-03-24-10-46-55;12,0;3,0;1000;0,0;3,0;1,0;2,0;row;1,0;False;True;False;1,0;True;1,50300002098
SBS1992w;game;2017-03-24-10-46-55;12,0;4,0;1000;1,0;3,0;2,0;0,0;column;0,0;True;False;False;0,866999864578;False;0,968999862671
SBS1992w;game;2017-03-24-10-46-55;12,0;5,0;1000;3,0;1,0;2,0;0,0;row;1,0;False;True;False;1,5;True;1,00699996948
SBS1992w;game;2017-03-24-10-46-55;12,0;6,0;1000;3,0;1,0;2,0;0,0;column;1,0;False;True;False;1,09999990463;True;1,39100003242
SBS1992w;game;2017-03-24-10-46-55;12,0;7,0;1000;0,0;2,0;3,0;1,0;row;0,0;True;False;True;2,53299999237;True;1,29199981689
SBS1992w;game;2017-03-24-10-46-55;12,0;8,0;1000;0,0;3,0;2,0;1,0;column;1,0;True;True;True;0,933000087738;True;1,02399992943
SBS1992w;game;2017-03-24-10-46-55;12,0;9,0;1000;2,0;0,0;3,0;1,0;row;1,0;False;False;False;1,632999897;True;1,25999999046
SBS1992w;game;2017-03-24-10-46-55;12,0;10,0;1000;3,0;0,0;1,0;2,0;column;1,0;False;False;False;1,66700005531;True;1,16100001335
SBS1992w;game;2017-03-24-10-46-55;12,0;11,0;1000;2,0;3,0;1,0;0,0;column;1,0;False;True;False;1,73500013351;True;1,32399988174
SBS1992w;game;2017-03-24-10-46-55;12,0;12,0;1000;0,0;2,0;3,0;1,0;column;1,0;True;False;True;0,934000015259;True;1,50100016594
SBS1992w;game;2017-03-24-10-46-55;12,0;13,0;1000;2,0;0,0;1,0;3,0;row;0,0;False;False;False;1,33300018311;True;1,09999990463
SBS1992w;game;2017-03-24-10-46-55;12,0;14,0;1000;1,0;2,0;0,0;3,0;column;1,0;True;False;True;0,667000055313;True;1,52599978447
SBS1992w;game;2017-03-24-10-46-55;12,0;15,0;1000;1,0;3,0;2,0;0,0;column;0,0;False;False;False;1,89999985695;True;1,3710000515
SBS1992w;game;2017-03-24-10-46-55;12,0;16,0;1000;0,0;3,0;2,0;1,0;column;0,0;False;True;False;1,20000004768;True;0,998999834061
SBS1992w;game;2017-03-24-10-46-55;12,0;17,0;1000;0,0;1,0;2,0;3,0;column;1,0;True;True;True;0,934000015259;True;1,12800002098
SBS1992w;game;2017-03-24-10-46-55;12,0;18,0;1000;2,0;3,0;1,0;0,0;column;1,0;True;False;True;0,832999944687;True;1,5
SBS1992w;game;2017-03-24-10-46-55;12,0;19,0;1000;2,0;1,0;0,0;3,0;row;1,0;False;True;False;2,10000014305;True;0,928999900818
SBS1992w;game;2017-03-24-10-46-55;12,0;20,0;1000;2,0;0,0;3,0;1,0;column;0,0;True;True;True;1,06700015068;True;1,06599998474
SBS1992w;game;2017-03-24-10-46-55;12,0;21,0;1000;1,0;3,0;2,0;0,0;row;0,0;False;False;False;1,86599993706;True;0,866000175476
SBS1992w;game;2017-03-24-10-46-55;12,0;22,0;1000;3,0;0,0;2,0;1,0;column;0,0;True;False;True;2,53300023079;True;1,16700005531
SBS1992w;game;2017-03-24-10-46-55;12,0;23,0;1000;0,0;1,0;2,0;3,0;row;0,0;False;False;False;1,132999897;True;1,02399992943
SBS1992w;game;2017-03-24-10-46-55;12,0;24,0;1000;0,0;3,0;1,0;2,0;row;0,0;False;True;False;1,59999990463;True;1,13100004196
SBS1992w;game;2017-03-24-10-46-55;12,0;25,0;1000;2,0;1,0;3,0;0,0;column;1,0;False;False;False;1,9319999218;True;1,3710000515
SBS1992w;game;2017-03-24-10-46-55;12,0;26,0;1000;3,0;2,0;1,0;0,0;column;0,0;True;False;True;1,60099983215;True;1,06900000572
SBS1992w;game;2017-03-24-10-46-55;12,0;27,0;1000;0,0;2,0;3,0;1,0;column;0,0;True;True;True;2,86699986458;True;0,591000080109
SBS1992w;game;2017-03-24-10-46-55;12,0;28,0;1000;3,0;1,0;0,0;2,0;row;1,0;True;False;True;1,76699995995;True;0,667000055313
SBS1992w;game;2017-03-24-10-46-55;12,0;29,0;1000;0,0;2,0;1,0;3,0;column;0,0;False;True;False;2,30100011826;True;1,16599988937
SBS1992w;game;2017-03-24-10-46-55;12,0;30,0;1000;1,0;3,0;0,0;2,0;column;0,0;True;False;True;1,70000004768;True;1,36999988556
SBS1992w;game;2017-03-24-10-46-55;12,0;31,0;1000;0,0;3,0;1,0;2,0;column;1,0;False;True;False;1,33299994469;True;1,46100020409
SBS1992w;game;2017-03-24-10-46-55;12,0;32,0;1000;1,0;0,0;3,0;2,0;row;1,0;False;False;False;2,26699995995;True;1,13799977303
SBS1992w;game;2017-03-24-10-46-55;12,0;33,0;1000;2,0;1,0;3,0;0,0;row;1,0;False;True;False;1,5;True;1,4960000515
SBS1992w;game;2017-03-24-10-46-55;12,0;34,0;1000;3,0;1,0;2,0;0,0;column;1,0;True;False;True;1,73200011253;True;1,45799994469
SBS1992w;game;2017-03-24-10-46-55;12,0;35,0;1000;1,0;2,0;3,0;0,0;column;1,0;False;False;False;1,90100002289;True;1,23799991608
SBS1992w;game;2017-03-24-10-46-55;12,0;36,0;1000;3,0;2,0;0,0;1,0;column;1,0;True;True;False;1,79800009727;False;0,695999860764
SBS1992w;game;2017-03-24-10-46-55;12,0;37,0;1000;2,0;0,0;1,0;3,0;row;0,0;True;True;True;0,600000143051;True;0,966000080109
SBS1992w;game;2017-03-24-10-46-55;12,0;38,0;1000;2,0;3,0;0,0;1,0;row;0,0;True;True;True;1,06700015068;True;1,00099992752
SBS1992w;game;2017-03-24-10-46-55;12,0;39,0;1000;1,0;0,0;3,0;2,0;column;1,0;False;False;False;1,06699991226;True;0,901000022888
SBS1992w;game;2017-03-24-10-46-55;12,0;40,0;1000;3,0;2,0;1,0;0,0;row;0,0;True;True;True;0,865000009537;True;1,43200016022
SBS1992w;game;2017-03-24-10-46-55;12,0;41,0;1000;2,0;1,0;0,0;3,0;column;0,0;True;True;True;0,766000032425;True;1,1970000267
SBS1992w;game;2017-03-24-10-46-55;12,0;42,0;1000;0,0;1,0;3,0;2,0;row;1,0;False;True;False;1,66700005531;True;1,42599987984
SBS1992w;game;2017-03-24-10-46-55;12,0;43,0;1000;2,0;3,0;0,0;1,0;row;0,0;False;True;False;1,23300004005;True;1,39400005341
SBS1992w;game;2017-03-24-10-46-55;12,0;44,0;1000;3,0;0,0;2,0;1,0;row;1,0;False;False;False;1,23299980164;True;1,17100000381
SBS1992w;game;2017-03-24-10-46-55;12,0;45,0;1000;0,0;2,0;1,0;3,0;column;1,0;True;True;True;1,53299999237;True;1,16899991035
SBS1992w;game;2017-03-24-10-46-55;12,0;46,0;1000;3,0;1,0;2,0;0,0;row;0,0;False;True;False;1,7990000248;True;1,1970000267
SBS1992w;game;2017-03-24-10-46-55;12,0;47,0;1000;0,0;2,0;1,0;3,0;row;0,0;False;True;False;1,39999985695;True;0,730999946594
SBS1992w;game;2017-03-24-10-46-55;12,0;48,0;1000;2,0;1,0;0,0;3,0;row;1,0;True;True;False;1,20000004768;False;0,973999977112
