Observer;Condition;SessionID;Block;Trial;COA;Color0;Color1;Color2;Color3;Target;Which;Match;FlipComplimentary;Response;RT;Correct;OnsetDelay
SGS1995w;experiment;2017-02-20-09-05-23;1,0;1,0;-100;0,0;1,0;3,0;2,0;column;1,0;False;True;True;8,38399982452;False;0,779000043869
SGS1995w;experiment;2017-02-20-09-05-23;1,0;2,0;-100;3,0;2,0;0,0;1,0;row;1,0;False;True;False;2,58299994469;True;0,990000009537
SGS1995w;experiment;2017-02-20-09-05-23;1,0;3,0;-100;0,0;3,0;1,0;2,0;row;1,0;True;True;True;2,34899997711;True;0,524000167847
SGS1995w;experiment;2017-02-20-09-05-23;1,0;4,0;-100;1,0;3,0;0,0;2,0;row;0,0;True;False;False;3,31699991226;False;1,23200011253
SGS1995w;experiment;2017-02-20-09-05-23;1,0;5,0;-100;3,0;0,0;1,0;2,0;row;0,0;True;False;False;5,11599993706;False;1,3710000515
SGS1995w;experiment;2017-02-20-09-05-23;1,0;6,0;-100;0,0;3,0;1,0;2,0;row;0,0;True;True;True;2,58400011063;True;1,09699988365
SGS1995w;experiment;2017-02-20-09-05-23;1,0;7,0;-100;0,0;2,0;3,0;1,0;row;1,0;False;False;False;2,45300006866;True;1,13199996948
SGS1995w;experiment;2017-02-20-09-05-23;1,0;8,0;-100;2,0;3,0;1,0;0,0;column;1,0;False;True;False;3,1819999218;True;1,2009999752
SGS1995w;experiment;2017-02-20-09-05-23;1,0;9,0;-100;2,0;0,0;3,0;1,0;column;0,0;True;False;True;4,15100002289;True;0,900000095367
SGS1995w;experiment;2017-02-20-09-05-23;1,0;10,0;-100;1,0;3,0;2,0;0,0;row;0,0;False;True;False;3,48199987411;True;0,621999979019
SGS1995w;experiment;2017-02-20-09-05-23;1,0;11,0;-100;0,0;1,0;3,0;2,0;row;1,0;False;False;False;2,34999990463;True;1,49699997902
SGS1995w;experiment;2017-02-20-09-05-23;1,0;12,0;-100;3,0;0,0;2,0;1,0;row;1,0;True;False;False;2,8180000782;False;0,894999980927
SGS1995w;experiment;2017-02-20-09-05-23;1,0;13,0;-100;0,0;2,0;1,0;3,0;column;0,0;True;True;False;2,41600012779;False;1,40399980545
SGS1995w;experiment;2017-02-20-09-05-23;1,0;14,0;-100;3,0;1,0;2,0;0,0;row;0,0;False;True;False;5,35100007057;True;1,49899983406
SGS1995w;experiment;2017-02-20-09-05-23;1,0;15,0;-100;1,0;2,0;0,0;3,0;column;1,0;False;True;False;3,34999990463;True;0,896000146866
SGS1995w;experiment;2017-02-20-09-05-23;1,0;16,0;-100;2,0;3,0;0,0;1,0;column;0,0;False;True;False;1,5490000248;True;1,32899999619
SGS1995w;experiment;2017-02-20-09-05-23;1,0;17,0;-100;1,0;0,0;3,0;2,0;column;0,0;False;False;False;1,8180000782;True;0,832999944687
SGS1995w;experiment;2017-02-20-09-05-23;1,0;18,0;-100;2,0;1,0;3,0;0,0;row;0,0;False;True;False;1,58499979973;True;1,23300004005
SGS1995w;experiment;2017-02-20-09-05-23;1,0;19,0;-100;3,0;2,0;0,0;1,0;row;0,0;True;True;False;1,48199987411;False;0,632999897003
SGS1995w;experiment;2017-02-20-09-05-23;1,0;20,0;-100;2,0;0,0;1,0;3,0;row;1,0;False;False;False;1,34899997711;True;1,33300018311
SGS1995w;experiment;2017-02-20-09-05-23;1,0;21,0;-100;2,0;3,0;0,0;1,0;row;0,0;True;True;True;4,78399991989;True;1,10199999809
SGS1995w;experiment;2017-02-20-09-05-23;1,0;22,0;-100;3,0;1,0;2,0;0,0;row;1,0;False;False;False;2,6819999218;True;1,09000015259
SGS1995w;experiment;2017-02-20-09-05-23;1,0;23,0;-100;3,0;1,0;2,0;0,0;row;0,0;True;True;True;3,71600008011;True;0,698000192642
SGS1995w;experiment;2017-02-20-09-05-23;1,0;24,0;-100;0,0;1,0;2,0;3,0;column;1,0;True;True;True;2,58500003815;True;1,36199998856
SGS1995w;experiment;2017-02-20-09-05-23;1,0;25,0;-100;2,0;3,0;0,0;1,0;column;1,0;False;True;True;2,91600012779;False;1,03299999237
SGS1995w;experiment;2017-02-20-09-05-23;1,0;26,0;-100;0,0;3,0;1,0;2,0;column;1,0;False;False;False;3,44900012016;True;1,49699997902
SGS1995w;experiment;2017-02-20-09-05-23;1,0;27,0;-100;0,0;2,0;1,0;3,0;column;1,0;True;True;False;4,25;False;1,06399989128
SGS1995w;experiment;2017-02-20-09-05-23;1,0;28,0;-100;1,0;0,0;2,0;3,0;column;1,0;True;True;True;4,01699995995;True;0,99799990654
SGS1995w;experiment;2017-02-20-09-05-23;1,0;29,0;-100;0,0;1,0;2,0;3,0;row;1,0;True;False;True;3,35000014305;True;1,10099983215
SGS1995w;experiment;2017-02-20-09-05-23;1,0;30,0;-100;1,0;3,0;2,0;0,0;column;0,0;False;False;False;4,15000009537;True;0,763000011444
SGS1995w;experiment;2017-02-20-09-05-23;1,0;31,0;-100;1,0;0,0;3,0;2,0;column;1,0;False;False;True;4,04999995232;False;0,764000177383
SGS1995w;experiment;2017-02-20-09-05-23;1,0;32,0;-100;0,0;3,0;2,0;1,0;column;1,0;False;False;False;4,01699995995;True;1,1289999485
SGS1995w;experiment;2017-02-20-09-05-23;1,0;33,0;-100;3,0;2,0;0,0;1,0;column;0,0;True;False;False;4,51699995995;False;1,50099992752
SGS1995w;experiment;2017-02-20-09-05-23;1,0;34,0;-100;3,0;2,0;1,0;0,0;row;0,0;False;True;False;3,81700015068;True;1,36199998856
SGS1995w;experiment;2017-02-20-09-05-23;1,0;35,0;-100;3,0;2,0;0,0;1,0;row;0,0;False;False;False;2,14999985695;True;1,09600019455
SGS1995w;experiment;2017-02-20-09-05-23;1,0;36,0;-100;3,0;2,0;1,0;0,0;row;1,0;True;True;False;4,41700005531;False;1,0
SGS1995w;experiment;2017-02-20-09-05-23;1,0;37,0;-100;0,0;2,0;1,0;3,0;row;1,0;False;False;False;3,55099987984;True;1,17000007629
SGS1995w;experiment;2017-02-20-09-05-23;1,0;38,0;-100;3,0;0,0;1,0;2,0;row;1,0;True;False;False;3,91599988937;False;1,22300004959
SGS1995w;experiment;2017-02-20-09-05-23;1,0;39,0;-100;1,0;2,0;3,0;0,0;row;0,0;True;False;True;2,98199987411;True;0,597999811172
SGS1995w;experiment;2017-02-20-09-05-23;1,0;40,0;-100;3,0;0,0;2,0;1,0;row;1,0;False;True;False;2,18400001526;True;1,29100012779
SGS1995w;experiment;2017-02-20-09-05-23;1,0;41,0;-100;1,0;3,0;2,0;0,0;row;1,0;False;False;False;2,94800019264;True;1,20000004768
SGS1995w;experiment;2017-02-20-09-05-23;1,0;42,0;-100;1,0;2,0;0,0;3,0;column;0,0;True;True;True;2,18399977684;True;1,13400006294
SGS1995w;experiment;2017-02-20-09-05-23;1,0;43,0;-100;3,0;2,0;1,0;0,0;row;1,0;False;False;False;1,55000019073;True;0,52999997139
SGS1995w;experiment;2017-02-20-09-05-23;1,0;44,0;-100;3,0;0,0;1,0;2,0;column;1,0;True;True;False;1,84899997711;False;0,863999843597
SGS1995w;experiment;2017-02-20-09-05-23;1,0;45,0;-100;2,0;0,0;3,0;1,0;column;1,0;False;False;False;2,48300004005;True;1,49900007248
SGS1995w;experiment;2017-02-20-09-05-23;1,0;46,0;-100;3,0;1,0;2,0;0,0;column;1,0;False;False;False;1,382999897;True;1,125
SGS1995w;experiment;2017-02-20-09-05-23;1,0;47,0;-100;2,0;0,0;3,0;1,0;column;0,0;False;False;False;2,01600003242;True;0,96799993515
SGS1995w;experiment;2017-02-20-09-05-23;1,0;48,0;-100;1,0;0,0;2,0;3,0;column;1,0;False;False;False;1,65000009537;True;0,763999938965
SGS1995w;experiment;2017-02-20-09-05-23;2,0;1,0;100;2,0;0,0;1,0;3,0;row;0,0;False;False;True;2,36600017548;False;1,09500002861
SGS1995w;experiment;2017-02-20-09-05-23;2,0;2,0;100;3,0;0,0;2,0;1,0;row;1,0;False;False;False;1,70000004768;True;0,964999914169
SGS1995w;experiment;2017-02-20-09-05-23;2,0;3,0;100;3,0;1,0;0,0;2,0;row;0,0;True;False;False;2,13400006294;False;1,13399982452
SGS1995w;experiment;2017-02-20-09-05-23;2,0;4,0;100;2,0;1,0;0,0;3,0;column;1,0;True;False;True;2,83299994469;True;1,22799992561
SGS1995w;experiment;2017-02-20-09-05-23;2,0;5,0;100;2,0;3,0;1,0;0,0;column;0,0;False;False;False;0,967000007629;True;0,588999986649
SGS1995w;experiment;2017-02-20-09-05-23;2,0;6,0;100;3,0;0,0;2,0;1,0;row;1,0;True;False;False;1,33399987221;False;1,46399998665
SGS1995w;experiment;2017-02-20-09-05-23;2,0;7,0;100;1,0;3,0;0,0;2,0;row;0,0;True;False;True;1,93300008774;True;1,2650001049
SGS1995w;experiment;2017-02-20-09-05-23;2,0;8,0;100;3,0;2,0;1,0;0,0;column;1,0;True;False;True;4,0;True;1,29699993134
SGS1995w;experiment;2017-02-20-09-05-23;2,0;9,0;100;2,0;0,0;3,0;1,0;row;0,0;True;True;True;5,00099992752;True;1,45800018311
SGS1995w;experiment;2017-02-20-09-05-23;2,0;10,0;100;0,0;2,0;1,0;3,0;column;0,0;False;False;False;1,86500000954;True;0,996999979019
SGS1995w;experiment;2017-02-20-09-05-23;2,0;11,0;100;0,0;3,0;2,0;1,0;row;0,0;False;True;False;2,53299999237;True;1,10199999809
SGS1995w;experiment;2017-02-20-09-05-23;2,0;12,0;100;2,0;1,0;3,0;0,0;column;0,0;False;False;False;2,0680000782;True;0,756000041962
SGS1995w;experiment;2017-02-20-09-05-23;2,0;13,0;100;1,0;2,0;0,0;3,0;row;0,0;True;False;True;2,17100000381;True;1,09299993515
SGS1995w;experiment;2017-02-20-09-05-23;2,0;14,0;100;0,0;2,0;3,0;1,0;row;0,0;False;False;True;2,36500000954;False;1,13300013542
SGS1995w;experiment;2017-02-20-09-05-23;2,0;15,0;100;2,0;0,0;1,0;3,0;column;0,0;True;True;False;3,03299999237;False;1,29299998283
SGS1995w;experiment;2017-02-20-09-05-23;2,0;16,0;100;2,0;0,0;3,0;1,0;row;1,0;True;True;False;0,967000007629;False;1,46199989319
SGS1995w;experiment;2017-02-20-09-05-23;2,0;17,0;100;3,0;2,0;1,0;0,0;column;1,0;False;True;False;4,29799985886;True;1,06500005722
SGS1995w;experiment;2017-02-20-09-05-23;2,0;18,0;100;2,0;0,0;1,0;3,0;column;0,0;False;True;False;1,53400015831;True;1,19599986076
SGS1995w;experiment;2017-02-20-09-05-23;2,0;19,0;100;2,0;1,0;0,0;3,0;row;0,0;True;False;False;1,46499991417;False;1,29800009727
SGS1995w;experiment;2017-02-20-09-05-23;2,0;20,0;100;3,0;0,0;1,0;2,0;row;0,0;False;True;True;2,20000004768;False;1,39100003242
SGS1995w;experiment;2017-02-20-09-05-23;2,0;21,0;100;3,0;1,0;2,0;0,0;row;0,0;True;False;True;2,16700005531;True;0,698999881744
SGS1995w;experiment;2017-02-20-09-05-23;2,0;22,0;100;3,0;2,0;0,0;1,0;column;1,0;False;False;False;1,93400001526;True;1,09899997711
SGS1995w;experiment;2017-02-20-09-05-23;2,0;23,0;100;0,0;1,0;3,0;2,0;row;0,0;False;True;False;2,16699981689;True;0,588999986649
SGS1995w;experiment;2017-02-20-09-05-23;2,0;24,0;100;2,0;1,0;3,0;0,0;column;1,0;True;True;False;4,49799990654;False;1,52300000191
SGS1995w;experiment;2017-02-20-09-05-23;2,0;25,0;100;3,0;1,0;0,0;2,0;column;0,0;False;False;False;1,96600008011;True;1,16900014877
SGS1995w;experiment;2017-02-20-09-05-23;2,0;26,0;100;2,0;3,0;0,0;1,0;row;0,0;True;True;False;2,26700019836;False;1,29600000381
SGS1995w;experiment;2017-02-20-09-05-23;2,0;27,0;100;0,0;3,0;2,0;1,0;column;0,0;False;True;False;2,0680000782;True;1,23000001907
SGS1995w;experiment;2017-02-20-09-05-23;2,0;28,0;100;2,0;0,0;3,0;1,0;column;0,0;False;True;False;1,79999995232;True;0,759000062943
SGS1995w;experiment;2017-02-20-09-05-23;2,0;29,0;100;1,0;3,0;2,0;0,0;column;0,0;False;False;False;1,16600012779;True;0,934000015259
SGS1995w;experiment;2017-02-20-09-05-23;2,0;30,0;100;2,0;1,0;3,0;0,0;row;1,0;True;True;True;4,33399987221;True;0,563999891281
SGS1995w;experiment;2017-02-20-09-05-23;2,0;31,0;100;3,0;2,0;1,0;0,0;row;0,0;True;False;True;2,99800014496;True;0,756000041962
SGS1995w;experiment;2017-02-20-09-05-23;2,0;32,0;100;0,0;3,0;2,0;1,0;row;1,0;True;True;False;3,33300018311;False;1,42700004578
SGS1995w;experiment;2017-02-20-09-05-23;2,0;33,0;100;2,0;3,0;1,0;0,0;column;0,0;True;False;False;2,09800004959;False;0,866999864578
SGS1995w;experiment;2017-02-20-09-05-23;2,0;34,0;100;3,0;2,0;0,0;1,0;row;0,0;False;True;False;4,46600008011;True;0,9359998703
SGS1995w;experiment;2017-02-20-09-05-23;2,0;35,0;100;3,0;0,0;2,0;1,0;column;0,0;True;False;False;4,56599998474;False;1,4319999218
SGS1995w;experiment;2017-02-20-09-05-23;2,0;36,0;100;2,0;1,0;0,0;3,0;column;1,0;False;False;True;5,20000004768;False;0,865000009537
SGS1995w;experiment;2017-02-20-09-05-23;2,0;37,0;100;0,0;1,0;2,0;3,0;column;1,0;True;True;True;3,63199996948;True;0,530999898911
SGS1995w;experiment;2017-02-20-09-05-23;2,0;38,0;100;2,0;3,0;1,0;0,0;row;0,0;False;True;True;7,46700000763;False;1,45700001717
SGS1995w;experiment;2017-02-20-09-05-23;2,0;39,0;100;3,0;0,0;1,0;2,0;column;0,0;True;True;False;3,59999990463;False;1,10199999809
SGS1995w;experiment;2017-02-20-09-05-23;2,0;40,0;100;2,0;0,0;1,0;3,0;column;1,0;True;False;True;3,2990000248;True;0,796000003815
SGS1995w;experiment;2017-02-20-09-05-23;2,0;41,0;100;0,0;1,0;2,0;3,0;column;0,0;True;False;False;1,76699995995;False;1,23300004005
SGS1995w;experiment;2017-02-20-09-05-23;2,0;42,0;100;3,0;2,0;0,0;1,0;row;1,0;False;True;False;4,06599998474;True;1,46399998665
SGS1995w;experiment;2017-02-20-09-05-23;2,0;43,0;100;0,0;2,0;3,0;1,0;row;0,0;True;True;False;4,4319999218;False;1,40000009537
SGS1995w;experiment;2017-02-20-09-05-23;2,0;44,0;100;3,0;1,0;2,0;0,0;column;1,0;True;False;True;8,16600012779;True;0,863999843597
SGS1995w;experiment;2017-02-20-09-05-23;2,0;45,0;100;1,0;3,0;2,0;0,0;column;1,0;True;True;True;2,89999985695;True;0,798000097275
SGS1995w;experiment;2017-02-20-09-05-23;2,0;46,0;100;1,0;2,0;3,0;0,0;column;1,0;False;True;True;2,86800003052;False;1,05500006676
SGS1995w;experiment;2017-02-20-09-05-23;2,0;47,0;100;2,0;0,0;1,0;3,0;column;1,0;False;False;False;3,93299984932;True;1,2349998951
SGS1995w;experiment;2017-02-20-09-05-23;2,0;48,0;100;0,0;3,0;1,0;2,0;row;1,0;True;False;True;4,7009999752;True;0,796000003815
SGS1995w;experiment;2017-02-20-09-05-23;3,0;1,0;1000;2,0;3,0;0,0;1,0;row;1,0;True;False;False;2,93299984932;False;0,850000143051
SGS1995w;experiment;2017-02-20-09-05-23;3,0;2,0;1000;1,0;2,0;0,0;3,0;row;0,0;False;True;True;5,53399991989;False;0,932000160217
SGS1995w;experiment;2017-02-20-09-05-23;3,0;3,0;1000;0,0;2,0;1,0;3,0;column;1,0;True;True;True;7,0;True;1,23399996758
SGS1995w;experiment;2017-02-20-09-05-23;3,0;4,0;1000;0,0;1,0;3,0;2,0;column;1,0;False;False;False;8,03299999237;True;1,16500020027
SGS1995w;experiment;2017-02-20-09-05-23;3,0;5,0;1000;1,0;0,0;3,0;2,0;column;1,0;False;False;False;4,60099983215;True;0,856999874115
SGS1995w;experiment;2017-02-20-09-05-23;3,0;6,0;1000;2,0;0,0;3,0;1,0;row;1,0;True;True;True;3,83099985123;True;0,901000022888
SGS1995w;experiment;2017-02-20-09-05-23;3,0;7,0;1000;1,0;0,0;2,0;3,0;column;1,0;True;True;False;4,43300008774;False;1,39599990845
SGS1995w;experiment;2017-02-20-09-05-23;3,0;8,0;1000;3,0;1,0;2,0;0,0;row;1,0;False;False;False;5,10000014305;True;0,604000091553
SGS1995w;experiment;2017-02-20-09-05-23;3,0;9,0;1000;0,0;1,0;2,0;3,0;row;0,0;False;False;False;6,46799993515;True;0,835000038147
SGS1995w;experiment;2017-02-20-09-05-23;3,0;10,0;1000;3,0;2,0;1,0;0,0;row;0,0;True;False;False;5,76699995995;False;1,03299999237
SGS1995w;experiment;2017-02-20-09-05-23;3,0;11,0;1000;1,0;3,0;0,0;2,0;row;1,0;False;True;False;6,367000103;True;0,798000097275
SGS1995w;experiment;2017-02-20-09-05-23;3,0;12,0;1000;2,0;0,0;1,0;3,0;column;1,0;True;True;True;3,43300008774;True;1,35700011253
SGS1995w;experiment;2017-02-20-09-05-23;3,0;13,0;1000;1,0;2,0;3,0;0,0;column;1,0;False;False;False;3,89999985695;True;0,893000125885
SGS1995w;experiment;2017-02-20-09-05-23;3,0;14,0;1000;0,0;3,0;2,0;1,0;row;1,0;False;False;False;6,03399991989;True;0,56500005722
SGS1995w;experiment;2017-02-20-09-05-23;3,0;15,0;1000;3,0;0,0;1,0;2,0;row;0,0;False;True;False;3,46599984169;True;0,859999895096
SGS1995w;experiment;2017-02-20-09-05-23;3,0;16,0;1000;0,0;3,0;1,0;2,0;row;1,0;False;False;False;3,86599993706;True;0,723000049591
SGS1995w;experiment;2017-02-20-09-05-23;3,0;17,0;1000;1,0;3,0;0,0;2,0;column;0,0;False;True;True;2,70100021362;False;1,29600000381
SGS1995w;experiment;2017-02-20-09-05-23;3,0;18,0;1000;1,0;3,0;0,0;2,0;column;0,0;True;True;False;6,23300004005;False;0,832000017166
SGS1995w;experiment;2017-02-20-09-05-23;3,0;19,0;1000;2,0;3,0;1,0;0,0;row;1,0;True;False;True;3,23300004005;True;1,43099999428
SGS1995w;experiment;2017-02-20-09-05-23;3,0;20,0;1000;0,0;1,0;3,0;2,0;column;1,0;True;False;False;5,43300008774;False;0,518000125885
SGS1995w;experiment;2017-02-20-09-05-23;3,0;21,0;1000;2,0;1,0;0,0;3,0;column;0,0;True;False;False;2,26499986649;False;0,901000022888
SGS1995w;experiment;2017-02-20-09-05-23;3,0;22,0;1000;3,0;1,0;0,0;2,0;row;1,0;True;True;True;4,49799990654;True;0,664000034332
SGS1995w;experiment;2017-02-20-09-05-23;3,0;23,0;1000;2,0;0,0;3,0;1,0;column;0,0;False;True;False;6,93300008774;True;1,39600014687
SGS1995w;experiment;2017-02-20-09-05-23;3,0;24,0;1000;0,0;3,0;2,0;1,0;column;0,0;False;False;False;6,16700005531;True;1,22899985313
SGS1995w;experiment;2017-02-20-09-05-23;3,0;25,0;1000;2,0;1,0;3,0;0,0;column;0,0;False;True;False;7,66700005531;True;1,39300012589
SGS1995w;experiment;2017-02-20-09-05-23;3,0;26,0;1000;2,0;1,0;0,0;3,0;row;1,0;False;True;False;4,56599998474;True;0,799999952316
SGS1995w;experiment;2017-02-20-09-05-23;3,0;27,0;1000;1,0;0,0;2,0;3,0;column;1,0;False;False;True;6,96600008011;False;0,763999938965
SGS1995w;experiment;2017-02-20-09-05-23;3,0;28,0;1000;0,0;3,0;2,0;1,0;row;0,0;False;False;True;5,90999984741;False;1,02999997139
SGS1995w;experiment;2017-02-20-09-05-23;3,0;29,0;1000;3,0;1,0;0,0;2,0;row;0,0;True;True;True;4,5;True;0,823000192642
SGS1995w;experiment;2017-02-20-09-05-23;3,0;30,0;1000;2,0;1,0;0,0;3,0;column;0,0;False;True;False;6,86699986458;True;0,794999837875
SGS1995w;experiment;2017-02-20-09-05-23;3,0;31,0;1000;1,0;3,0;2,0;0,0;row;1,0;False;False;True;3,73300004005;False;1,03099989891
SGS1995w;experiment;2017-02-20-09-05-23;3,0;32,0;1000;0,0;3,0;2,0;1,0;column;0,0;True;True;True;6,36599993706;True;0,96599984169
SGS1995w;experiment;2017-02-20-09-05-23;3,0;33,0;1000;0,0;1,0;3,0;2,0;row;1,0;True;True;True;3,73300004005;True;1,02999997139
SGS1995w;experiment;2017-02-20-09-05-23;3,0;34,0;1000;3,0;2,0;1,0;0,0;row;1,0;False;False;False;5,83400011063;True;1,42899990082
SGS1995w;experiment;2017-02-20-09-05-23;3,0;35,0;1000;2,0;0,0;1,0;3,0;row;0,0;True;True;True;3,69899988174;True;0,833000183105
SGS1995w;experiment;2017-02-20-09-05-23;3,0;36,0;1000;1,0;2,0;0,0;3,0;column;0,0;True;True;True;4,43300008774;True;0,957000017166
SGS1995w;experiment;2017-02-20-09-05-23;3,0;37,0;1000;3,0;0,0;2,0;1,0;column;0,0;False;True;True;3,36699986458;False;1,19099998474
SGS1995w;experiment;2017-02-20-09-05-23;3,0;38,0;1000;0,0;2,0;3,0;1,0;column;0,0;False;True;True;5,16700005531;False;0,871000051498
SGS1995w;experiment;2017-02-20-09-05-23;3,0;39,0;1000;2,0;0,0;1,0;3,0;column;0,0;True;False;True;7,367000103;True;0,968000173569
SGS1995w;experiment;2017-02-20-09-05-23;3,0;40,0;1000;3,0;2,0;0,0;1,0;column;1,0;True;False;True;3,80000019073;True;0,522000074387
SGS1995w;experiment;2017-02-20-09-05-23;3,0;41,0;1000;2,0;0,0;3,0;1,0;column;1,0;False;True;True;3,132999897;False;0,896000146866
SGS1995w;experiment;2017-02-20-09-05-23;3,0;42,0;1000;1,0;2,0;0,0;3,0;row;0,0;True;True;True;5,63399982452;True;0,933000087738
SGS1995w;experiment;2017-02-20-09-05-23;3,0;43,0;1000;3,0;1,0;0,0;2,0;column;0,0;False;False;False;6,39899992943;True;1,46700000763
SGS1995w;experiment;2017-02-20-09-05-23;3,0;44,0;1000;2,0;0,0;1,0;3,0;column;1,0;False;False;False;7,13400006294;True;1,29000020027
SGS1995w;experiment;2017-02-20-09-05-23;3,0;45,0;1000;3,0;0,0;2,0;1,0;column;1,0;True;False;True;4,03299999237;True;1,39599990845
SGS1995w;experiment;2017-02-20-09-05-23;3,0;46,0;1000;0,0;2,0;3,0;1,0;row;1,0;True;True;True;4,132999897;True;1,39499998093
SGS1995w;experiment;2017-02-20-09-05-23;3,0;47,0;1000;3,0;2,0;1,0;0,0;column;1,0;False;True;False;3,39999985695;True;1,03200006485
SGS1995w;experiment;2017-02-20-09-05-23;3,0;48,0;1000;1,0;2,0;3,0;0,0;column;0,0;True;False;False;6,56700015068;False;1,46300005913
SGS1995w;experiment;2017-02-20-09-05-23;4,0;1,0;100;0,0;3,0;2,0;1,0;column;1,0;False;False;False;4,33200001717;True;0,990000009537
SGS1995w;experiment;2017-02-20-09-05-23;4,0;2,0;100;0,0;3,0;2,0;1,0;column;1,0;True;True;False;7,46700000763;False;1,12999987602
SGS1995w;experiment;2017-02-20-09-05-23;4,0;3,0;100;0,0;1,0;2,0;3,0;row;0,0;False;True;False;8,06900000572;True;1,32999992371
SGS1995w;experiment;2017-02-20-09-05-23;4,0;4,0;100;0,0;3,0;1,0;2,0;row;1,0;False;False;False;5,96700000763;True;1,43099999428
SGS1995w;experiment;2017-02-20-09-05-23;4,0;5,0;100;0,0;2,0;3,0;1,0;column;1,0;False;False;False;5,33299994469;True;1,00099992752
SGS1995w;experiment;2017-02-20-09-05-23;4,0;6,0;100;3,0;1,0;0,0;2,0;column;1,0;False;False;False;6,10099983215;True;0,762000083923
SGS1995w;experiment;2017-02-20-09-05-23;4,0;7,0;100;1,0;2,0;3,0;0,0;column;0,0;True;False;False;7,19900012016;False;1,02099990845
SGS1995w;experiment;2017-02-20-09-05-23;4,0;8,0;100;0,0;1,0;3,0;2,0;row;1,0;True;True;False;5,10100007057;False;1,0649998188
SGS1995w;experiment;2017-02-20-09-05-23;4,0;9,0;100;3,0;1,0;0,0;2,0;column;1,0;True;False;True;3,90000009537;True;0,838000059128
SGS1995w;experiment;2017-02-20-09-05-23;4,0;10,0;100;1,0;2,0;3,0;0,0;row;0,0;False;False;False;7,40100002289;True;0,798000097275
SGS1995w;experiment;2017-02-20-09-05-23;4,0;11,0;100;3,0;2,0;1,0;0,0;row;1,0;False;False;False;6,99799990654;True;0,858000040054
SGS1995w;experiment;2017-02-20-09-05-23;4,0;12,0;100;2,0;3,0;1,0;0,0;row;1,0;True;True;True;5,26799988747;True;0,963999986649
SGS1995w;experiment;2017-02-20-09-05-23;4,0;13,0;100;0,0;1,0;2,0;3,0;row;1,0;True;True;True;4,63099980354;True;1,17100000381
SGS1995w;experiment;2017-02-20-09-05-23;4,0;14,0;100;1,0;3,0;0,0;2,0;column;1,0;False;False;True;5,83099985123;False;0,694999933243
SGS1995w;experiment;2017-02-20-09-05-23;4,0;15,0;100;1,0;2,0;0,0;3,0;row;1,0;False;False;False;5,13300013542;True;0,598000049591
SGS1995w;experiment;2017-02-20-09-05-23;4,0;16,0;100;3,0;1,0;2,0;0,0;row;1,0;True;True;True;5,0;True;1,36299991608
SGS1995w;experiment;2017-02-20-09-05-23;4,0;17,0;100;3,0;2,0;1,0;0,0;column;0,0;False;True;False;4,10000014305;True;1,45700001717
SGS1995w;experiment;2017-02-20-09-05-23;4,0;18,0;100;2,0;1,0;3,0;0,0;row;0,0;False;False;True;7,69799995422;False;1,49099993706
SGS1995w;experiment;2017-02-20-09-05-23;4,0;19,0;100;1,0;0,0;2,0;3,0;row;0,0;True;False;True;5,19999980927;True;1,03500008583
SGS1995w;experiment;2017-02-20-09-05-23;4,0;20,0;100;3,0;1,0;2,0;0,0;column;0,0;True;False;False;6,40100002289;False;0,833999872208
SGS1995w;experiment;2017-02-20-09-05-23;4,0;21,0;100;1,0;0,0;3,0;2,0;row;1,0;True;True;True;4,63000011444;True;0,999000072479
SGS1995w;experiment;2017-02-20-09-05-23;4,0;22,0;100;0,0;2,0;1,0;3,0;row;0,0;True;False;True;7,56799983978;True;1,1210000515
SGS1995w;experiment;2017-02-20-09-05-23;4,0;23,0;100;2,0;1,0;3,0;0,0;row;1,0;False;False;False;8,39900016785;True;0,664000034332
SGS1995w;experiment;2017-02-20-09-05-23;4,0;24,0;100;1,0;3,0;2,0;0,0;row;1,0;True;False;False;3,66600012779;False;0,598999977112
SGS1995w;experiment;2017-02-20-09-05-23;4,0;25,0;100;1,0;3,0;2,0;0,0;row;1,0;False;False;False;6,46700000763;True;1,26999998093
SGS1995w;experiment;2017-02-20-09-05-23;4,0;26,0;100;1,0;0,0;2,0;3,0;row;1,0;False;False;False;4,29999995232;True;1,19800019264
SGS1995w;experiment;2017-02-20-09-05-23;4,0;27,0;100;3,0;0,0;1,0;2,0;column;1,0;False;False;False;5,76699995995;True;1,10100007057
SGS1995w;experiment;2017-02-20-09-05-23;4,0;28,0;100;1,0;2,0;0,0;3,0;column;1,0;False;True;True;6,26600003242;False;1,5
SGS1995w;experiment;2017-02-20-09-05-23;4,0;29,0;100;0,0;2,0;1,0;3,0;row;0,0;False;True;False;8,00100016594;True;0,868999958038
SGS1995w;experiment;2017-02-20-09-05-23;4,0;30,0;100;2,0;0,0;3,0;1,0;row;1,0;False;True;False;5,83300018311;True;0,953999996185
SGS1995w;experiment;2017-02-20-09-05-23;4,0;31,0;100;1,0;3,0;0,0;2,0;row;0,0;False;False;True;7,03500008583;False;1,03099989891
SGS1995w;experiment;2017-02-20-09-05-23;4,0;32,0;100;0,0;2,0;1,0;3,0;row;1,0;True;True;True;3,73300004005;True;1,23600006104
SGS1995w;experiment;2017-02-20-09-05-23;4,0;33,0;100;0,0;2,0;3,0;1,0;column;0,0;True;True;True;7,867000103;True;0,699000120163
SGS1995w;experiment;2017-02-20-09-05-23;4,0;34,0;100;2,0;3,0;1,0;0,0;column;1,0;True;False;True;5,83300018311;True;1,50199985504
SGS1995w;experiment;2017-02-20-09-05-23;4,0;35,0;100;2,0;3,0;0,0;1,0;row;1,0;False;False;False;3,7990000248;True;0,930000066757
SGS1995w;experiment;2017-02-20-09-05-23;4,0;36,0;100;3,0;0,0;1,0;2,0;row;1,0;True;False;True;7,6320002079;True;0,696000099182
SGS1995w;experiment;2017-02-20-09-05-23;4,0;37,0;100;3,0;0,0;1,0;2,0;column;1,0;True;False;True;7,10099983215;True;0,630999803543
SGS1995w;experiment;2017-02-20-09-05-23;4,0;38,0;100;0,0;1,0;2,0;3,0;column;0,0;False;False;False;7,0;True;1,29400014877
SGS1995w;experiment;2017-02-20-09-05-23;4,0;39,0;100;0,0;3,0;1,0;2,0;column;1,0;False;False;False;3,2650001049;True;0,929999828339
SGS1995w;experiment;2017-02-20-09-05-23;4,0;40,0;100;1,0;0,0;2,0;3,0;row;1,0;True;True;True;3,09899997711;True;0,733000040054
SGS1995w;experiment;2017-02-20-09-05-23;4,0;41,0;100;1,0;0,0;3,0;2,0;column;1,0;True;True;True;5,20000004768;True;0,657999992371
SGS1995w;experiment;2017-02-20-09-05-23;4,0;42,0;100;1,0;2,0;0,0;3,0;row;1,0;True;False;True;4,55999994278;True;1,30400013924
SGS1995w;experiment;2017-02-20-09-05-23;4,0;43,0;100;0,0;3,0;2,0;1,0;row;1,0;False;False;False;5,06599998474;True;1,02600002289
SGS1995w;experiment;2017-02-20-09-05-23;4,0;44,0;100;3,0;2,0;0,0;1,0;row;0,0;True;True;True;8,76300001144;True;1,4279999733
SGS1995w;experiment;2017-02-20-09-05-23;4,0;45,0;100;0,0;3,0;1,0;2,0;column;0,0;True;False;True;6,40100002289;True;1,29399991035
SGS1995w;experiment;2017-02-20-09-05-23;4,0;46,0;100;2,0;1,0;3,0;0,0;column;0,0;True;True;False;4,93300008774;False;0,596999883652
SGS1995w;experiment;2017-02-20-09-05-23;4,0;47,0;100;1,0;2,0;0,0;3,0;column;0,0;True;True;True;7,63400006294;True;0,831000089645
SGS1995w;experiment;2017-02-20-09-05-23;4,0;48,0;100;0,0;1,0;3,0;2,0;row;1,0;False;False;False;5,19900012016;True;1,33100008965
SGS1995w;experiment;2017-02-20-09-05-23;5,0;1,0;1000;3,0;1,0;2,0;0,0;row;1,0;True;False;True;3,50099992752;True;1,39300012589
SGS1995w;experiment;2017-02-20-09-05-23;5,0;2,0;1000;1,0;0,0;3,0;2,0;column;0,0;True;True;False;9,20000004768;False;0,963000059128
SGS1995w;experiment;2017-02-20-09-05-23;5,0;3,0;1000;0,0;1,0;3,0;2,0;column;0,0;False;True;False;9,53099989891;True;0,888999938965
SGS1995w;experiment;2017-02-20-09-05-23;5,0;4,0;1000;1,0;3,0;0,0;2,0;column;1,0;False;True;True;6,0;False;1,23000001907
SGS1995w;experiment;2017-02-20-09-05-23;5,0;5,0;1000;2,0;3,0;1,0;0,0;row;0,0;False;False;False;6,29999995232;True;0,62299990654
SGS1995w;experiment;2017-02-20-09-05-23;5,0;6,0;1000;1,0;3,0;2,0;0,0;row;0,0;False;False;True;5,86500000954;False;1,03200006485
SGS1995w;experiment;2017-02-20-09-05-23;5,0;7,0;1000;3,0;1,0;2,0;0,0;column;0,0;True;False;False;5,26399993896;False;0,865000009537
SGS1995w;experiment;2017-02-20-09-05-23;5,0;8,0;1000;3,0;0,0;1,0;2,0;column;1,0;False;True;True;4,06500005722;False;0,764000177383
SGS1995w;experiment;2017-02-20-09-05-23;5,0;9,0;1000;2,0;0,0;3,0;1,0;column;0,0;True;True;True;8,33299994469;True;1,32100009918
SGS1995w;experiment;2017-02-20-09-05-23;5,0;10,0;1000;1,0;0,0;3,0;2,0;row;1,0;False;True;False;6,23199987411;True;1,42899990082
SGS1995w;experiment;2017-02-20-09-05-23;5,0;11,0;1000;0,0;2,0;3,0;1,0;column;1,0;False;False;False;8,26699995995;True;1,16799998283
SGS1995w;experiment;2017-02-20-09-05-23;5,0;12,0;1000;2,0;0,0;3,0;1,0;column;1,0;True;False;False;7,20000004768;False;1,36500000954
SGS1995w;experiment;2017-02-20-09-05-23;5,0;13,0;1000;0,0;2,0;1,0;3,0;row;1,0;False;True;False;4,36500000954;True;1,26099991798
SGS1995w;experiment;2017-02-20-09-05-23;5,0;14,0;1000;0,0;2,0;3,0;1,0;column;0,0;True;False;True;3,89899992943;True;1,46600008011
SGS1995w;experiment;2017-02-20-09-05-23;5,0;15,0;1000;3,0;2,0;0,0;1,0;row;0,0;False;True;False;4,66700005531;True;0,865000009537
SGS1995w;experiment;2017-02-20-09-05-23;5,0;16,0;1000;3,0;2,0;1,0;0,0;column;0,0;True;True;True;4,06399989128;True;1,2650001049
SGS1995w;experiment;2017-02-20-09-05-23;5,0;17,0;1000;2,0;1,0;0,0;3,0;row;0,0;False;True;False;3,32899999619;True;0,898000001907
SGS1995w;experiment;2017-02-20-09-05-23;5,0;18,0;1000;2,0;1,0;3,0;0,0;column;1,0;True;False;True;5,29999995232;True;1,26600003242
SGS1995w;experiment;2017-02-20-09-05-23;5,0;19,0;1000;3,0;2,0;1,0;0,0;column;1,0;True;False;True;4,06500005722;True;1,09599995613
SGS1995w;experiment;2017-02-20-09-05-23;5,0;20,0;1000;1,0;0,0;2,0;3,0;column;0,0;False;True;False;5,5;True;1,33099985123
SGS1995w;experiment;2017-02-20-09-05-23;5,0;21,0;1000;0,0;3,0;2,0;1,0;row;1,0;True;True;True;3,06399989128;True;1,42999982834
SGS1995w;experiment;2017-02-20-09-05-23;5,0;22,0;1000;3,0;1,0;2,0;0,0;row;0,0;True;False;True;4,86400008202;True;1,2610001564
SGS1995w;experiment;2017-02-20-09-05-23;5,0;23,0;1000;3,0;0,0;2,0;1,0;column;0,0;True;False;True;3,13400006294;True;1,12400007248
SGS1995w;experiment;2017-02-20-09-05-23;5,0;24,0;1000;2,0;3,0;1,0;0,0;row;0,0;True;True;False;4,70000004768;False;1,3220000267
SGS1995w;experiment;2017-02-20-09-05-23;5,0;25,0;1000;2,0;3,0;1,0;0,0;column;1,0;True;True;True;4,90000009537;True;1,257999897
SGS1995w;experiment;2017-02-20-09-05-23;5,0;26,0;1000;1,0;3,0;2,0;0,0;column;1,0;True;True;True;3,76699995995;True;1,12900018692
SGS1995w;experiment;2017-02-20-09-05-23;5,0;27,0;1000;1,0;3,0;0,0;2,0;column;1,0;True;False;True;2,53099989891;True;1,16500020027
SGS1995w;experiment;2017-02-20-09-05-23;5,0;28,0;1000;2,0;1,0;0,0;3,0;row;0,0;True;False;True;3,59999990463;True;1,49599981308
SGS1995w;experiment;2017-02-20-09-05-23;5,0;29,0;1000;3,0;0,0;2,0;1,0;row;1,0;False;True;True;3,76699995995;False;0,765999794006
SGS1995w;experiment;2017-02-20-09-05-23;5,0;30,0;1000;2,0;0,0;1,0;3,0;row;1,0;False;False;False;6,03299999237;True;0,695000171661
SGS1995w;experiment;2017-02-20-09-05-23;5,0;31,0;1000;0,0;2,0;1,0;3,0;column;0,0;False;True;False;5,53099989891;True;1,13100004196
SGS1995w;experiment;2017-02-20-09-05-23;5,0;32,0;1000;2,0;3,0;0,0;1,0;column;1,0;False;True;False;4,13300013542;True;1,3710000515
SGS1995w;experiment;2017-02-20-09-05-23;5,0;33,0;1000;1,0;2,0;0,0;3,0;column;1,0;False;True;False;4,09999990463;True;0,56299996376
SGS1995w;experiment;2017-02-20-09-05-23;5,0;34,0;1000;0,0;2,0;1,0;3,0;row;0,0;True;True;False;4,39999985695;False;1,16499996185
SGS1995w;experiment;2017-02-20-09-05-23;5,0;35,0;1000;3,0;0,0;2,0;1,0;row;0,0;True;True;True;2,73300004005;True;1,52999997139
SGS1995w;experiment;2017-02-20-09-05-23;5,0;36,0;1000;3,0;2,0;0,0;1,0;column;1,0;False;False;True;8,26699995995;False;1,46399998665
SGS1995w;experiment;2017-02-20-09-05-23;5,0;37,0;1000;3,0;0,0;1,0;2,0;column;0,0;False;True;False;6,06700015068;True;1,2650001049
SGS1995w;experiment;2017-02-20-09-05-23;5,0;38,0;1000;1,0;0,0;2,0;3,0;row;1,0;True;True;True;4,2990000248;True;0,932000160217
SGS1995w;experiment;2017-02-20-09-05-23;5,0;39,0;1000;0,0;3,0;1,0;2,0;column;0,0;False;True;False;4,19799995422;True;1,06599998474
SGS1995w;experiment;2017-02-20-09-05-23;5,0;40,0;1000;3,0;2,0;1,0;0,0;column;0,0;False;True;False;5,66500020027;True;1,13199996948
SGS1995w;experiment;2017-02-20-09-05-23;5,0;41,0;1000;1,0;3,0;2,0;0,0;column;1,0;False;False;True;4,09899997711;False;0,5640001297
SGS1995w;experiment;2017-02-20-09-05-23;5,0;42,0;1000;3,0;1,0;0,0;2,0;row;0,0;False;True;False;4,33300018311;True;0,667999982834
SGS1995w;experiment;2017-02-20-09-05-23;5,0;43,0;1000;3,0;2,0;1,0;0,0;row;0,0;False;True;False;3,53100013733;True;1,19799995422
SGS1995w;experiment;2017-02-20-09-05-23;5,0;44,0;1000;0,0;1,0;3,0;2,0;row;0,0;True;False;True;2,96700000763;True;0,993000030518
SGS1995w;experiment;2017-02-20-09-05-23;5,0;45,0;1000;2,0;3,0;1,0;0,0;column;0,0;True;True;True;4,06599998474;True;0,797999858856
SGS1995w;experiment;2017-02-20-09-05-23;5,0;46,0;1000;2,0;0,0;3,0;1,0;row;0,0;False;False;True;6,03399991989;False;1,03800010681
SGS1995w;experiment;2017-02-20-09-05-23;5,0;47,0;1000;2,0;1,0;0,0;3,0;row;1,0;True;True;True;4,06599998474;True;1,29799985886
SGS1995w;experiment;2017-02-20-09-05-23;5,0;48,0;1000;2,0;1,0;3,0;0,0;column;0,0;True;True;False;2,7650001049;False;0,765999794006
SGS1995w;experiment;2017-02-20-09-05-23;6,0;1,0;-100;1,0;2,0;3,0;0,0;column;0,0;True;True;False;4,57999992371;False;1,17100000381
SGS1995w;experiment;2017-02-20-09-05-23;6,0;2,0;-100;1,0;3,0;0,0;2,0;row;0,0;False;True;False;5,1130001545;True;0,828999996185
SGS1995w;experiment;2017-02-20-09-05-23;6,0;3,0;-100;3,0;0,0;1,0;2,0;column;1,0;False;True;False;2,95000004768;True;0,529000043869
SGS1995w;experiment;2017-02-20-09-05-23;6,0;4,0;-100;2,0;3,0;1,0;0,0;column;1,0;True;True;True;4,21700000763;True;0,791000127792
SGS1995w;experiment;2017-02-20-09-05-23;6,0;5,0;-100;3,0;1,0;0,0;2,0;row;1,0;False;False;False;4,88099980354;True;0,563999891281
SGS1995w;experiment;2017-02-20-09-05-23;6,0;6,0;-100;0,0;2,0;3,0;1,0;column;0,0;True;False;True;8,58200001717;True;0,990000009537
SGS1995w;experiment;2017-02-20-09-05-23;6,0;7,0;-100;0,0;3,0;1,0;2,0;column;0,0;False;True;False;4,58300018311;True;0,628999948502
SGS1995w;experiment;2017-02-20-09-05-23;6,0;8,0;-100;1,0;3,0;2,0;0,0;column;0,0;True;False;True;6,28200006485;True;1,39499998093
SGS1995w;experiment;2017-02-20-09-05-23;6,0;9,0;-100;0,0;1,0;2,0;3,0;row;1,0;False;True;False;5,78299999237;True;1,19900012016
SGS1995w;experiment;2017-02-20-09-05-23;6,0;10,0;-100;3,0;1,0;0,0;2,0;row;0,0;False;False;False;5,48300004005;True;0,53200006485
SGS1995w;experiment;2017-02-20-09-05-23;6,0;11,0;-100;2,0;1,0;3,0;0,0;column;1,0;True;True;True;4,38199996948;True;0,732000112534
SGS1995w;experiment;2017-02-20-09-05-23;6,0;12,0;-100;1,0;3,0;0,0;2,0;column;1,0;True;True;True;5,88399982452;True;0,62900018692
SGS1995w;experiment;2017-02-20-09-05-23;6,0;13,0;-100;0,0;1,0;3,0;2,0;row;0,0;False;False;False;4,65000009537;True;0,868000030518
SGS1995w;experiment;2017-02-20-09-05-23;6,0;14,0;-100;3,0;1,0;0,0;2,0;column;1,0;False;True;False;3,9509999752;True;1,36600017548
SGS1995w;experiment;2017-02-20-09-05-23;6,0;15,0;-100;2,0;3,0;1,0;0,0;row;0,0;True;True;True;8,41700005531;True;1,23000001907
SGS1995w;experiment;2017-02-20-09-05-23;6,0;16,0;-100;0,0;1,0;3,0;2,0;row;1,0;True;True;True;4,08100008965;True;1,13400006294
SGS1995w;experiment;2017-02-20-09-05-23;6,0;17,0;-100;1,0;3,0;0,0;2,0;row;1,0;True;False;True;4,54999995232;True;1,03099989891
SGS1995w;experiment;2017-02-20-09-05-23;6,0;18,0;-100;3,0;1,0;2,0;0,0;column;1,0;True;True;True;4,18400001526;True;0,796000003815
SGS1995w;experiment;2017-02-20-09-05-23;6,0;19,0;-100;2,0;0,0;3,0;1,0;row;1,0;False;False;False;7,68299984932;True;1,1289999485
SGS1995w;experiment;2017-02-20-09-05-23;6,0;20,0;-100;3,0;0,0;2,0;1,0;row;0,0;False;True;False;7,41699981689;True;1,29699993134
SGS1995w;experiment;2017-02-20-09-05-23;6,0;21,0;-100;2,0;3,0;0,0;1,0;row;1,0;False;False;True;5,08399987221;False;1,09700012207
SGS1995w;experiment;2017-02-20-09-05-23;6,0;22,0;-100;0,0;3,0;2,0;1,0;row;1,0;True;True;True;7,11800003052;True;0,694999933243
SGS1995w;experiment;2017-02-20-09-05-23;6,0;23,0;-100;1,0;2,0;0,0;3,0;row;1,0;True;True;True;5,48300004005;True;0,729000091553
SGS1995w;experiment;2017-02-20-09-05-23;6,0;24,0;-100;2,0;1,0;0,0;3,0;row;1,0;False;True;False;6,08100008965;True;1,46300005913
SGS1995w;experiment;2017-02-20-09-05-23;6,0;25,0;-100;3,0;0,0;2,0;1,0;column;1,0;True;False;False;4,34999990463;False;0,730999946594
SGS1995w;experiment;2017-02-20-09-05-23;6,0;26,0;-100;0,0;2,0;1,0;3,0;column;1,0;False;False;False;2,85100007057;True;1,42999982834
SGS1995w;experiment;2017-02-20-09-05-23;6,0;27,0;-100;2,0;0,0;1,0;3,0;column;0,0;False;False;False;5,71600008011;True;0,667000055313
SGS1995w;experiment;2017-02-20-09-05-23;6,0;28,0;-100;2,0;0,0;3,0;1,0;row;1,0;True;True;False;6,24899983406;False;0,862999916077
SGS1995w;experiment;2017-02-20-09-05-23;6,0;29,0;-100;0,0;1,0;2,0;3,0;row;0,0;True;True;False;5,64499998093;False;1,09599995613
SGS1995w;experiment;2017-02-20-09-05-23;6,0;30,0;-100;1,0;3,0;2,0;0,0;column;1,0;False;True;True;5,78299999237;False;1,08999991417
SGS1995w;experiment;2017-02-20-09-05-23;6,0;31,0;-100;0,0;2,0;3,0;1,0;column;0,0;False;True;False;7,45000004768;True;1,19799995422
SGS1995w;experiment;2017-02-20-09-05-23;6,0;32,0;-100;0,0;2,0;1,0;3,0;row;0,0;True;True;True;6,75100016594;True;1,29299998283
SGS1995w;experiment;2017-02-20-09-05-23;6,0;33,0;-100;3,0;2,0;0,0;1,0;row;1,0;True;True;True;5,94900012016;True;1,4359998703
SGS1995w;experiment;2017-02-20-09-05-23;6,0;34,0;-100;2,0;0,0;1,0;3,0;row;0,0;False;False;True;6,31500005722;False;1,36999988556
SGS1995w;experiment;2017-02-20-09-05-23;6,0;35,0;-100;0,0;2,0;3,0;1,0;column;1,0;True;True;True;6,18099999428;True;1,02700018883
SGS1995w;experiment;2017-02-20-09-05-23;6,0;36,0;-100;2,0;3,0;1,0;0,0;column;0,0;False;True;False;4,21799993515;True;1,3639998436
SGS1995w;experiment;2017-02-20-09-05-23;6,0;37,0;-100;0,0;3,0;2,0;1,0;row;0,0;True;False;True;3,34999990463;True;1,33200001717
SGS1995w;experiment;2017-02-20-09-05-23;6,0;38,0;-100;1,0;3,0;0,0;2,0;column;1,0;False;False;False;4,61599993706;True;1,23000001907
SGS1995w;experiment;2017-02-20-09-05-23;6,0;39,0;-100;2,0;3,0;0,0;1,0;column;1,0;True;True;True;5,4509999752;True;0,933000087738
SGS1995w;experiment;2017-02-20-09-05-23;6,0;40,0;-100;0,0;3,0;2,0;1,0;column;1,0;True;False;True;4,28399991989;True;0,62299990654
SGS1995w;experiment;2017-02-20-09-05-23;6,0;41,0;-100;1,0;2,0;0,0;3,0;row;0,0;False;True;False;5,57999992371;True;1,46300005913
SGS1995w;experiment;2017-02-20-09-05-23;6,0;42,0;-100;1,0;2,0;0,0;3,0;row;0,0;True;True;True;4,0490000248;True;1,09599995613
SGS1995w;experiment;2017-02-20-09-05-23;6,0;43,0;-100;2,0;0,0;1,0;3,0;column;1,0;False;True;False;4,882999897;True;1,367000103
SGS1995w;experiment;2017-02-20-09-05-23;6,0;44,0;-100;0,0;2,0;1,0;3,0;row;1,0;True;False;True;3,78099989891;True;0,769999980927
SGS1995w;experiment;2017-02-20-09-05-23;6,0;45,0;-100;3,0;1,0;0,0;2,0;row;1,0;True;False;True;6,61599993706;True;1,36499977112
SGS1995w;experiment;2017-02-20-09-05-23;6,0;46,0;-100;3,0;0,0;2,0;1,0;column;0,0;False;False;True;5,84900021553;False;1,26599979401
SGS1995w;experiment;2017-02-20-09-05-23;6,0;47,0;-100;1,0;2,0;3,0;0,0;column;1,0;True;True;True;4,74500012398;True;1,00300002098
SGS1995w;experiment;2017-02-20-09-05-23;6,0;48,0;-100;3,0;1,0;0,0;2,0;column;0,0;True;True;True;5,04899978638;True;1,32999992371
SGS1995w;experiment;2017-02-20-09-05-23;7,0;1,0;-100;3,0;2,0;0,0;1,0;column;1,0;True;True;True;3,01499986649;True;0,65499997139
SGS1995w;experiment;2017-02-20-09-05-23;7,0;2,0;-100;2,0;1,0;0,0;3,0;row;0,0;True;True;True;4,24699997902;True;1,26699995995
SGS1995w;experiment;2017-02-20-09-05-23;7,0;3,0;-100;1,0;2,0;3,0;0,0;row;1,0;True;False;True;6,6130001545;True;0,506000041962
SGS1995w;experiment;2017-02-20-09-05-23;7,0;4,0;-100;2,0;1,0;3,0;0,0;column;0,0;True;False;False;3,81500005722;False;1,33700013161
SGS1995w;experiment;2017-02-20-09-05-23;7,0;5,0;-100;0,0;2,0;3,0;1,0;row;0,0;True;True;True;4,61699986458;True;1,30399990082
SGS1995w;experiment;2017-02-20-09-05-23;7,0;6,0;-100;0,0;1,0;3,0;2,0;column;1,0;True;True;True;5,18099999428;True;1,13300013542
SGS1995w;experiment;2017-02-20-09-05-23;7,0;7,0;-100;2,0;1,0;3,0;0,0;column;1,0;False;True;False;7,28099989891;True;1,1320002079
SGS1995w;experiment;2017-02-20-09-05-23;7,0;8,0;-100;0,0;1,0;2,0;3,0;column;0,0;True;False;False;6,78299999237;False;0,862999916077
SGS1995w;experiment;2017-02-20-09-05-23;7,0;9,0;-100;0,0;2,0;1,0;3,0;column;0,0;False;False;False;5,15100002289;True;0,900000095367
SGS1995w;experiment;2017-02-20-09-05-23;7,0;10,0;-100;2,0;0,0;3,0;1,0;row;0,0;False;False;False;6,01600003242;True;1,132999897
SGS1995w;experiment;2017-02-20-09-05-23;7,0;11,0;-100;1,0;3,0;2,0;0,0;row;1,0;True;True;True;6,15100002289;True;1,09399986267
SGS1995w;experiment;2017-02-20-09-05-23;7,0;12,0;-100;3,0;1,0;0,0;2,0;column;0,0;False;True;False;4,01700019836;True;1,40300011635
SGS1995w;experiment;2017-02-20-09-05-23;7,0;13,0;-100;0,0;3,0;2,0;1,0;row;0,0;False;False;False;3,58500003815;True;0,957999944687
SGS1995w;experiment;2017-02-20-09-05-23;7,0;14,0;-100;1,0;0,0;2,0;3,0;column;0,0;False;False;False;5,34899997711;True;1,46199989319
SGS1995w;experiment;2017-02-20-09-05-23;7,0;15,0;-100;0,0;1,0;3,0;2,0;column;0,0;True;False;False;4,64900016785;False;1,30100011826
SGS1995w;experiment;2017-02-20-09-05-23;7,0;16,0;-100;3,0;2,0;1,0;0,0;column;0,0;True;False;False;5,28299999237;False;1,49900007248
SGS1995w;experiment;2017-02-20-09-05-23;7,0;17,0;-100;1,0;2,0;0,0;3,0;column;0,0;False;True;False;3,95799994469;True;1,1320002079
SGS1995w;experiment;2017-02-20-09-05-23;7,0;18,0;-100;0,0;2,0;3,0;1,0;row;1,0;True;False;True;6,90799999237;True;1,16300010681
SGS1995w;experiment;2017-02-20-09-05-23;7,0;19,0;-100;1,0;3,0;2,0;0,0;row;0,0;True;True;True;4,24899983406;True;0,702000141144
SGS1995w;experiment;2017-02-20-09-05-23;7,0;20,0;-100;3,0;0,0;1,0;2,0;row;1,0;False;False;False;3,71600008011;True;1,22600007057
SGS1995w;experiment;2017-02-20-09-05-23;7,0;21,0;-100;0,0;1,0;3,0;2,0;column;0,0;False;False;False;6,0150001049;True;1,40100002289
SGS1995w;experiment;2017-02-20-09-05-23;7,0;22,0;-100;3,0;2,0;1,0;0,0;column;1,0;False;False;False;4,14999985695;True;0,794999837875
SGS1995w;experiment;2017-02-20-09-05-23;7,0;23,0;-100;3,0;1,0;0,0;2,0;row;0,0;True;False;True;4,18300008774;True;1,257999897
SGS1995w;experiment;2017-02-20-09-05-23;7,0;24,0;-100;3,0;2,0;1,0;0,0;column;0,0;False;False;False;3,24899983406;True;0,799000024796
SGS1995w;experiment;2017-02-20-09-05-23;7,0;25,0;-100;0,0;3,0;1,0;2,0;row;1,0;False;True;False;4,31699991226;True;0,700999975204
SGS1995w;experiment;2017-02-20-09-05-23;7,0;26,0;-100;3,0;1,0;2,0;0,0;row;1,0;True;False;False;4,01600003242;False;1,22900009155
SGS1995w;experiment;2017-02-20-09-05-23;7,0;27,0;-100;3,0;1,0;2,0;0,0;column;0,0;True;False;True;3,85000014305;True;1,29800009727
SGS1995w;experiment;2017-02-20-09-05-23;7,0;28,0;-100;1,0;3,0;0,0;2,0;row;1,0;False;True;False;4,31699991226;True;0,630000114441
SGS1995w;experiment;2017-02-20-09-05-23;7,0;29,0;-100;3,0;2,0;1,0;0,0;column;1,0;True;False;True;5,11599993706;True;0,769999980927
SGS1995w;experiment;2017-02-20-09-05-23;7,0;30,0;-100;0,0;2,0;1,0;3,0;row;0,0;False;True;False;5,55100011826;True;0,960999965668
SGS1995w;experiment;2017-02-20-09-05-23;7,0;31,0;-100;1,0;0,0;3,0;2,0;row;1,0;True;False;True;2,98300004005;True;0,867000102997
SGS1995w;experiment;2017-02-20-09-05-23;7,0;32,0;-100;1,0;0,0;2,0;3,0;column;0,0;True;True;True;5,65000009537;True;1,23300004005
SGS1995w;experiment;2017-02-20-09-05-23;7,0;33,0;-100;1,0;2,0;3,0;0,0;row;0,0;False;False;False;4,45000004768;True;0,56500005722
SGS1995w;experiment;2017-02-20-09-05-23;7,0;34,0;-100;3,0;0,0;2,0;1,0;column;0,0;True;True;True;4,95000004768;True;0,690999984741
SGS1995w;experiment;2017-02-20-09-05-23;7,0;35,0;-100;2,0;0,0;3,0;1,0;row;0,0;True;False;True;4,3149998188;True;0,624000072479
SGS1995w;experiment;2017-02-20-09-05-23;7,0;36,0;-100;1,0;0,0;3,0;2,0;row;0,0;False;True;False;3,64999985695;True;0,760999917984
SGS1995w;experiment;2017-02-20-09-05-23;7,0;37,0;-100;2,0;1,0;3,0;0,0;row;0,0;True;True;False;5,51600003242;False;0,861999988556
SGS1995w;experiment;2017-02-20-09-05-23;7,0;38,0;-100;2,0;3,0;1,0;0,0;column;0,0;True;False;False;6,31599998474;False;1,09800004959
SGS1995w;experiment;2017-02-20-09-05-23;7,0;39,0;-100;0,0;1,0;3,0;2,0;row;0,0;True;False;True;3,88399982452;True;1,33100008965
SGS1995w;experiment;2017-02-20-09-05-23;7,0;40,0;-100;2,0;0,0;1,0;3,0;column;0,0;True;True;False;6,28299999237;False;1,12199997902
SGS1995w;experiment;2017-02-20-09-05-23;7,0;41,0;-100;1,0;0,0;3,0;2,0;column;0,0;True;False;True;7,25100016594;True;0,59500002861
SGS1995w;experiment;2017-02-20-09-05-23;7,0;42,0;-100;3,0;2,0;1,0;0,0;row;0,0;True;True;True;4,81700015068;True;0,994999885559
SGS1995w;experiment;2017-02-20-09-05-23;7,0;43,0;-100;2,0;3,0;0,0;1,0;row;0,0;False;True;True;5,41700005531;False;0,966000080109
SGS1995w;experiment;2017-02-20-09-05-23;7,0;44,0;-100;0,0;1,0;2,0;3,0;column;0,0;False;True;False;6,5150001049;True;1,03099989891
SGS1995w;experiment;2017-02-20-09-05-23;7,0;45,0;-100;2,0;0,0;1,0;3,0;row;1,0;True;False;True;3,98399996758;True;0,555000066757
SGS1995w;experiment;2017-02-20-09-05-23;7,0;46,0;-100;0,0;3,0;2,0;1,0;column;0,0;True;True;False;7,41700005531;False;1,02200007439
SGS1995w;experiment;2017-02-20-09-05-23;7,0;47,0;-100;1,0;2,0;3,0;0,0;column;1,0;False;True;False;4,45000004768;True;1,06599998474
SGS1995w;experiment;2017-02-20-09-05-23;7,0;48,0;-100;2,0;0,0;1,0;3,0;row;0,0;True;True;True;4,54800009727;True;1,09599995613
SGS1995w;experiment;2017-02-20-09-05-23;8,0;1,0;1000;0,0;1,0;3,0;2,0;row;1,0;False;True;False;3,56599998474;True;0,536000013351
SGS1995w;experiment;2017-02-20-09-05-23;8,0;2,0;1000;0,0;2,0;1,0;3,0;column;1,0;False;False;False;5,46700000763;True;1,02700018883
SGS1995w;experiment;2017-02-20-09-05-23;8,0;3,0;1000;1,0;2,0;0,0;3,0;row;1,0;False;False;False;3,96600008011;True;1,35800004005
SGS1995w;experiment;2017-02-20-09-05-23;8,0;4,0;1000;2,0;3,0;0,0;1,0;row;1,0;False;False;False;3,00099992752;True;0,669000148773
SGS1995w;experiment;2017-02-20-09-05-23;8,0;5,0;1000;1,0;0,0;3,0;2,0;row;0,0;True;False;True;3,23300004005;True;1,30100011826
SGS1995w;experiment;2017-02-20-09-05-23;8,0;6,0;1000;2,0;3,0;0,0;1,0;column;0,0;True;True;True;3,23399996758;True;0,665000200272
SGS1995w;experiment;2017-02-20-09-05-23;8,0;7,0;1000;0,0;1,0;2,0;3,0;column;0,0;True;False;True;5,66699981689;True;0,996999979019
SGS1995w;experiment;2017-02-20-09-05-23;8,0;8,0;1000;0,0;1,0;2,0;3,0;row;1,0;True;True;True;9,66700005531;True;0,963999986649
SGS1995w;experiment;2017-02-20-09-05-23;8,0;9,0;1000;2,0;0,0;1,0;3,0;column;0,0;False;True;False;5,46600008011;True;1,30599999428
SGS1995w;experiment;2017-02-20-09-05-23;8,0;10,0;1000;1,0;2,0;0,0;3,0;column;1,0;True;False;False;7,00099992752;False;0,828000068665
SGS1995w;experiment;2017-02-20-09-05-23;8,0;11,0;1000;3,0;0,0;1,0;2,0;row;0,0;True;True;True;2,79999995232;True;1,19499993324
SGS1995w;experiment;2017-02-20-09-05-23;8,0;12,0;1000;1,0;0,0;3,0;2,0;row;0,0;False;True;False;3,13400006294;True;1,0569999218
SGS1995w;experiment;2017-02-20-09-05-23;8,0;13,0;1000;0,0;3,0;2,0;1,0;row;0,0;True;False;True;2,29999995232;True;1,30100011826
SGS1995w;experiment;2017-02-20-09-05-23;8,0;14,0;1000;0,0;2,0;1,0;3,0;column;0,0;True;True;True;5,23399996758;True;0,698999881744
SGS1995w;experiment;2017-02-20-09-05-23;8,0;15,0;1000;0,0;2,0;1,0;3,0;row;0,0;False;False;False;2,66599988937;True;1,4960000515
SGS1995w;experiment;2017-02-20-09-05-23;8,0;16,0;1000;0,0;3,0;1,0;2,0;column;1,0;False;True;False;1,73300004005;True;1,00300002098
SGS1995w;experiment;2017-02-20-09-05-23;8,0;17,0;1000;0,0;3,0;2,0;1,0;column;1,0;True;True;True;4,66799998283;True;0,731000185013
SGS1995w;experiment;2017-02-20-09-05-23;8,0;18,0;1000;0,0;1,0;2,0;3,0;row;0,0;True;False;True;2,5;True;1,02400016785
SGS1995w;experiment;2017-02-20-09-05-23;8,0;19,0;1000;0,0;3,0;1,0;2,0;row;0,0;False;True;False;1,96700000763;True;0,629999876022
SGS1995w;experiment;2017-02-20-09-05-23;8,0;20,0;1000;3,0;1,0;2,0;0,0;row;0,0;False;False;True;3,99900007248;False;1,00100016594
SGS1995w;experiment;2017-02-20-09-05-23;8,0;21,0;1000;2,0;3,0;1,0;0,0;column;0,0;False;False;False;7,89900016785;True;1,46300005913
SGS1995w;experiment;2017-02-20-09-05-23;8,0;22,0;1000;1,0;3,0;2,0;0,0;row;0,0;True;True;True;3,56599998474;True;1,3639998436
SGS1995w;experiment;2017-02-20-09-05-23;8,0;23,0;1000;1,0;0,0;3,0;2,0;row;1,0;True;True;True;4,03099989891;True;1,13199996948
SGS1995w;experiment;2017-02-20-09-05-23;8,0;24,0;1000;1,0;3,0;2,0;0,0;column;0,0;False;True;False;5,40000009537;True;0,797000169754
SGS1995w;experiment;2017-02-20-09-05-23;8,0;25,0;1000;3,0;1,0;2,0;0,0;column;1,0;True;True;True;2,69499993324;True;1,03200006485
SGS1995w;experiment;2017-02-20-09-05-23;8,0;26,0;1000;1,0;2,0;3,0;0,0;row;0,0;False;True;True;3,20000004768;False;1,49099993706
SGS1995w;experiment;2017-02-20-09-05-23;8,0;27,0;1000;2,0;0,0;3,0;1,0;row;0,0;True;True;True;2,46600008011;True;1,38999986649
SGS1995w;experiment;2017-02-20-09-05-23;8,0;28,0;1000;3,0;2,0;0,0;1,0;column;0,0;True;False;False;2,40000009537;False;1,15799999237
SGS1995w;experiment;2017-02-20-09-05-23;8,0;29,0;1000;0,0;2,0;3,0;1,0;row;0,0;True;False;True;1,69899988174;True;1,33699989319
SGS1995w;experiment;2017-02-20-09-05-23;8,0;30,0;1000;3,0;0,0;2,0;1,0;column;1,0;False;False;False;2,132999897;True;0,624000072479
SGS1995w;experiment;2017-02-20-09-05-23;8,0;31,0;1000;3,0;1,0;0,0;2,0;column;0,0;True;True;True;3,2009999752;True;1,13199996948
SGS1995w;experiment;2017-02-20-09-05-23;8,0;32,0;1000;1,0;2,0;0,0;3,0;row;1,0;True;False;True;5,29699993134;True;0,832000017166
SGS1995w;experiment;2017-02-20-09-05-23;8,0;33,0;1000;0,0;1,0;3,0;2,0;column;0,0;True;False;True;2,20000004768;True;0,631000041962
SGS1995w;experiment;2017-02-20-09-05-23;8,0;34,0;1000;1,0;2,0;3,0;0,0;column;1,0;True;False;False;3,26699995995;False;0,798000097275
SGS1995w;experiment;2017-02-20-09-05-23;8,0;35,0;1000;3,0;0,0;2,0;1,0;row;0,0;False;False;False;2,13300013542;True;1,2990000248
SGS1995w;experiment;2017-02-20-09-05-23;8,0;36,0;1000;0,0;2,0;3,0;1,0;row;0,0;False;True;False;3,93099999428;True;0,631999969482
SGS1995w;experiment;2017-02-20-09-05-23;8,0;37,0;1000;1,0;0,0;2,0;3,0;row;1,0;False;True;False;2,33299994469;True;1,06200003624
SGS1995w;experiment;2017-02-20-09-05-23;8,0;38,0;1000;1,0;0,0;2,0;3,0;column;0,0;True;False;True;5,83299994469;True;1,02699995041
SGS1995w;experiment;2017-02-20-09-05-23;8,0;39,0;1000;1,0;2,0;3,0;0,0;row;1,0;False;True;False;3,867000103;True;0,898000001907
SGS1995w;experiment;2017-02-20-09-05-23;8,0;40,0;1000;3,0;2,0;0,0;1,0;row;1,0;True;True;True;3,73200011253;True;1,08899998665
SGS1995w;experiment;2017-02-20-09-05-23;8,0;41,0;1000;1,0;2,0;0,0;3,0;column;0,0;False;True;False;4,73300004005;True;1,02600002289
SGS1995w;experiment;2017-02-20-09-05-23;8,0;42,0;1000;0,0;3,0;1,0;2,0;row;0,0;True;True;True;2,367000103;True;0,697000026703
SGS1995w;experiment;2017-02-20-09-05-23;8,0;43,0;1000;3,0;2,0;0,0;1,0;row;1,0;False;True;True;3,33399987221;False;0,993000030518
SGS1995w;experiment;2017-02-20-09-05-23;8,0;44,0;1000;1,0;0,0;3,0;2,0;column;0,0;False;True;False;5,53699994087;True;0,663999795914
SGS1995w;experiment;2017-02-20-09-05-23;8,0;45,0;1000;1,0;2,0;3,0;0,0;row;0,0;True;False;True;1,30000019073;True;0,520999908447
SGS1995w;experiment;2017-02-20-09-05-23;8,0;46,0;1000;0,0;2,0;1,0;3,0;row;1,0;True;False;True;2,63400006294;True;0,566999912262
SGS1995w;experiment;2017-02-20-09-05-23;8,0;47,0;1000;3,0;0,0;1,0;2,0;column;1,0;True;False;True;3,59999990463;True;1,2539999485
SGS1995w;experiment;2017-02-20-09-05-23;8,0;48,0;1000;2,0;3,0;0,0;1,0;row;0,0;False;True;False;4,06799983978;True;1,23600006104
SGS1995w;experiment;2017-02-20-09-05-23;9,0;1,0;100;3,0;1,0;0,0;2,0;row;0,0;False;True;False;2,63400006294;True;0,763999938965
SGS1995w;experiment;2017-02-20-09-05-23;9,0;2,0;100;2,0;0,0;3,0;1,0;column;0,0;True;True;True;4,86500000954;True;1,49799990654
SGS1995w;experiment;2017-02-20-09-05-23;9,0;3,0;100;3,0;1,0;2,0;0,0;row;1,0;False;False;False;4,73000001907;True;0,536000013351
SGS1995w;experiment;2017-02-20-09-05-23;9,0;4,0;100;3,0;0,0;2,0;1,0;column;0,0;False;False;False;5,19899988174;True;1,29699993134
SGS1995w;experiment;2017-02-20-09-05-23;9,0;5,0;100;0,0;1,0;3,0;2,0;column;1,0;True;True;False;4,43200016022;False;1,46499991417
SGS1995w;experiment;2017-02-20-09-05-23;9,0;6,0;100;2,0;1,0;0,0;3,0;row;1,0;True;True;True;9,30099987984;True;1,16600012779
SGS1995w;experiment;2017-02-20-09-05-23;9,0;7,0;100;0,0;2,0;1,0;3,0;column;1,0;True;False;True;3,83299994469;True;1,25699996948
SGS1995w;experiment;2017-02-20-09-05-23;9,0;8,0;100;1,0;0,0;2,0;3,0;column;0,0;False;False;False;4,69900012016;True;1,05999994278
SGS1995w;experiment;2017-02-20-09-05-23;9,0;9,0;100;2,0;0,0;1,0;3,0;row;1,0;False;False;False;3,367000103;True;1,12999987602
SGS1995w;experiment;2017-02-20-09-05-23;9,0;10,0;100;2,0;3,0;0,0;1,0;row;0,0;False;False;False;5,29600000381;True;1,4319999218
SGS1995w;experiment;2017-02-20-09-05-23;9,0;11,0;100;1,0;0,0;2,0;3,0;column;0,0;True;False;True;4,06699991226;True;0,695999860764
SGS1995w;experiment;2017-02-20-09-05-23;9,0;12,0;100;0,0;3,0;2,0;1,0;row;0,0;True;True;True;4,9319999218;True;1,33200001717
SGS1995w;experiment;2017-02-20-09-05-23;9,0;13,0;100;1,0;2,0;0,0;3,0;column;0,0;False;True;False;2,89999985695;True;1,39800000191
SGS1995w;experiment;2017-02-20-09-05-23;9,0;14,0;100;0,0;2,0;3,0;1,0;row;1,0;True;True;True;3,29999995232;True;0,966000080109
SGS1995w;experiment;2017-02-20-09-05-23;9,0;15,0;100;1,0;2,0;3,0;0,0;row;1,0;True;False;True;3,56599998474;True;0,924000024796
SGS1995w;experiment;2017-02-20-09-05-23;9,0;16,0;100;0,0;1,0;2,0;3,0;row;0,0;True;True;True;3,03499984741;True;0,894999980927
SGS1995w;experiment;2017-02-20-09-05-23;9,0;17,0;100;3,0;0,0;2,0;1,0;column;1,0;False;True;False;3,66599988937;True;1,09399986267
SGS1995w;experiment;2017-02-20-09-05-23;9,0;18,0;100;3,0;1,0;2,0;0,0;column;1,0;False;True;False;3,16799998283;True;0,831000089645
SGS1995w;experiment;2017-02-20-09-05-23;9,0;19,0;100;1,0;2,0;3,0;0,0;column;1,0;True;True;True;3,96700000763;True;0,732000112534
SGS1995w;experiment;2017-02-20-09-05-23;9,0;20,0;100;1,0;3,0;0,0;2,0;row;1,0;False;False;False;2,53299999237;True;1,2990000248
SGS1995w;experiment;2017-02-20-09-05-23;9,0;21,0;100;0,0;1,0;2,0;3,0;row;1,0;False;True;False;2,60000014305;True;1,10199999809
SGS1995w;experiment;2017-02-20-09-05-23;9,0;22,0;100;0,0;2,0;1,0;3,0;column;1,0;False;False;False;3,5680000782;True;1,03099989891
SGS1995w;experiment;2017-02-20-09-05-23;9,0;23,0;100;3,0;2,0;0,0;1,0;column;0,0;True;True;True;4,70000004768;True;1,43400001526
SGS1995w;experiment;2017-02-20-09-05-23;9,0;24,0;100;1,0;2,0;3,0;0,0;row;0,0;True;False;True;1,96399998665;True;0,797000169754
SGS1995w;experiment;2017-02-20-09-05-23;9,0;25,0;100;3,0;1,0;2,0;0,0;column;0,0;False;True;False;5,23300004005;True;1,29999995232
SGS1995w;experiment;2017-02-20-09-05-23;9,0;26,0;100;2,0;0,0;1,0;3,0;row;1,0;True;True;True;3,70000004768;True;1,2990000248
SGS1995w;experiment;2017-02-20-09-05-23;9,0;27,0;100;1,0;2,0;0,0;3,0;row;0,0;False;False;False;2,19999980927;True;1,09999990463
SGS1995w;experiment;2017-02-20-09-05-23;9,0;28,0;100;2,0;3,0;0,0;1,0;column;1,0;False;True;False;2,96600008011;True;1,00300002098
SGS1995w;experiment;2017-02-20-09-05-23;9,0;29,0;100;2,0;3,0;1,0;0,0;row;0,0;True;True;False;2,33299994469;False;1,39800000191
SGS1995w;experiment;2017-02-20-09-05-23;9,0;30,0;100;1,0;2,0;3,0;0,0;row;1,0;False;False;False;5,90100002289;True;1,0649998188
SGS1995w;experiment;2017-02-20-09-05-23;9,0;31,0;100;2,0;0,0;3,0;1,0;column;1,0;False;False;False;4,49799990654;True;1,08899998665
SGS1995w;experiment;2017-02-20-09-05-23;9,0;32,0;100;1,0;0,0;2,0;3,0;column;1,0;False;False;False;3,30100011826;True;0,52999997139
SGS1995w;experiment;2017-02-20-09-05-23;9,0;33,0;100;2,0;3,0;1,0;0,0;row;1,0;False;False;False;3,76600003242;True;1,43499994278
SGS1995w;experiment;2017-02-20-09-05-23;9,0;34,0;100;3,0;1,0;0,0;2,0;row;1,0;True;True;False;4,89899992943;False;1,42499995232
SGS1995w;experiment;2017-02-20-09-05-23;9,0;35,0;100;2,0;1,0;0,0;3,0;column;0,0;True;False;True;5,13199996948;True;0,894999980927
SGS1995w;experiment;2017-02-20-09-05-23;9,0;36,0;100;0,0;2,0;1,0;3,0;column;0,0;True;False;False;3,63300013542;False;0,960999965668
SGS1995w;experiment;2017-02-20-09-05-23;9,0;37,0;100;2,0;0,0;3,0;1,0;column;1,0;True;False;False;6,13399982452;False;0,697000026703
SGS1995w;experiment;2017-02-20-09-05-23;9,0;38,0;100;1,0;3,0;0,0;2,0;column;0,0;True;True;True;5,56299996376;True;1,03600001335
SGS1995w;experiment;2017-02-20-09-05-23;9,0;39,0;100;2,0;1,0;0,0;3,0;row;0,0;False;True;False;4,80099987984;True;0,996000051498
SGS1995w;experiment;2017-02-20-09-05-23;9,0;40,0;100;0,0;2,0;3,0;1,0;column;0,0;False;True;False;3,06599998474;True;0,721999883652
SGS1995w;experiment;2017-02-20-09-05-23;9,0;41,0;100;0,0;3,0;1,0;2,0;row;0,0;False;True;False;3,19900012016;True;0,798999786377
SGS1995w;experiment;2017-02-20-09-05-23;9,0;42,0;100;3,0;0,0;2,0;1,0;row;0,0;True;True;True;3,39999985695;True;0,634999990463
SGS1995w;experiment;2017-02-20-09-05-23;9,0;43,0;100;3,0;1,0;0,0;2,0;column;0,0;True;False;True;4,20000004768;True;0,726999998093
SGS1995w;experiment;2017-02-20-09-05-23;9,0;44,0;100;1,0;0,0;3,0;2,0;row;0,0;False;True;True;3,43300008774;False;0,769000053406
SGS1995w;experiment;2017-02-20-09-05-23;9,0;45,0;100;0,0;2,0;3,0;1,0;row;1,0;False;True;False;4,66700005531;True;0,664999961853
SGS1995w;experiment;2017-02-20-09-05-23;9,0;46,0;100;1,0;0,0;3,0;2,0;column;0,0;True;True;True;2,76600003242;True;0,763000011444
SGS1995w;experiment;2017-02-20-09-05-23;9,0;47,0;100;1,0;3,0;2,0;0,0;column;1,0;False;False;False;3,99900007248;True;1,02300000191
SGS1995w;experiment;2017-02-20-09-05-23;9,0;48,0;100;2,0;1,0;3,0;0,0;column;1,0;False;True;False;4,36500000954;True;0,963999986649
SGS1995w;experiment;2017-02-20-09-05-23;10,0;1,0;-100;2,0;3,0;1,0;0,0;row;1,0;True;True;True;4,64800000191;True;1,51700019836
SGS1995w;experiment;2017-02-20-09-05-23;10,0;2,0;-100;1,0;2,0;3,0;0,0;column;0,0;False;False;False;3,95100021362;True;1,16600012779
SGS1995w;experiment;2017-02-20-09-05-23;10,0;3,0;-100;2,0;3,0;1,0;0,0;row;0,0;False;True;False;2,88399982452;True;1,26400017738
SGS1995w;experiment;2017-02-20-09-05-23;10,0;4,0;-100;2,0;3,0;1,0;0,0;row;1,0;False;False;False;2,81600022316;True;1,46299982071
SGS1995w;experiment;2017-02-20-09-05-23;10,0;5,0;-100;2,0;3,0;0,0;1,0;column;0,0;True;True;True;3,14999985695;True;1,13499999046
SGS1995w;experiment;2017-02-20-09-05-23;10,0;6,0;-100;2,0;0,0;3,0;1,0;column;1,0;True;True;False;4,68300008774;False;1,12300014496
SGS1995w;experiment;2017-02-20-09-05-23;10,0;7,0;-100;1,0;2,0;0,0;3,0;column;1,0;True;False;False;5,21800017357;False;1,29699993134
SGS1995w;experiment;2017-02-20-09-05-23;10,0;8,0;-100;1,0;0,0;3,0;2,0;column;1,0;True;True;True;4,3149998188;True;1,40499997139
SGS1995w;experiment;2017-02-20-09-05-23;10,0;9,0;-100;2,0;1,0;0,0;3,0;column;1,0;False;True;False;5,5490000248;True;0,831999778748
SGS1995w;experiment;2017-02-20-09-05-23;10,0;10,0;-100;2,0;1,0;3,0;0,0;row;1,0;True;False;True;4,51699995995;True;0,901999950409
SGS1995w;experiment;2017-02-20-09-05-23;10,0;11,0;-100;1,0;3,0;0,0;2,0;column;0,0;True;False;True;2,98300004005;True;1,22399997711
SGS1995w;experiment;2017-02-20-09-05-23;10,0;12,0;-100;2,0;1,0;3,0;0,0;column;0,0;False;True;False;5,15100002289;True;1,29499983788
SGS1995w;experiment;2017-02-20-09-05-23;10,0;13,0;-100;0,0;3,0;2,0;1,0;column;0,0;False;False;True;4,97900009155;False;0,960000038147
SGS1995w;experiment;2017-02-20-09-05-23;10,0;14,0;-100;3,0;0,0;1,0;2,0;column;0,0;True;True;True;6,61800003052;True;0,630000114441
SGS1995w;experiment;2017-02-20-09-05-23;10,0;15,0;-100;0,0;3,0;1,0;2,0;column;1,0;True;False;False;4,08299994469;False;0,868000030518
SGS1995w;experiment;2017-02-20-09-05-23;10,0;16,0;-100;2,0;1,0;0,0;3,0;column;1,0;True;True;True;3,75;True;1,46700000763
SGS1995w;experiment;2017-02-20-09-05-23;10,0;17,0;-100;3,0;1,0;0,0;2,0;column;1,0;True;False;False;2,98200011253;False;0,601000070572
SGS1995w;experiment;2017-02-20-09-05-23;10,0;18,0;-100;3,0;1,0;2,0;0,0;column;0,0;False;True;False;6,14899992943;True;1,36600017548
SGS1995w;experiment;2017-02-20-09-05-23;10,0;19,0;-100;2,0;1,0;0,0;3,0;column;0,0;False;False;False;3,98399996758;True;1,26900005341
SGS1995w;experiment;2017-02-20-09-05-23;10,0;20,0;-100;0,0;3,0;2,0;1,0;row;1,0;False;False;False;3,44900012016;True;0,894000053406
SGS1995w;experiment;2017-02-20-09-05-23;10,0;21,0;-100;1,0;3,0;2,0;0,0;column;1,0;True;True;True;4,28200006485;True;0,5640001297
SGS1995w;experiment;2017-02-20-09-05-23;10,0;22,0;-100;2,0;1,0;0,0;3,0;row;1,0;True;False;True;2,91599988937;True;1,43299984932
SGS1995w;experiment;2017-02-20-09-05-23;10,0;23,0;-100;1,0;0,0;2,0;3,0;row;0,0;True;True;False;4,11500000954;False;1,52799987793
SGS1995w;experiment;2017-02-20-09-05-23;10,0;24,0;-100;0,0;1,0;2,0;3,0;row;0,0;False;False;False;4,98399996758;True;1,40000009537
SGS1995w;experiment;2017-02-20-09-05-23;10,0;25,0;-100;2,0;3,0;0,0;1,0;row;1,0;True;True;False;4,04600000381;False;1,00200009346
SGS1995w;experiment;2017-02-20-09-05-23;10,0;26,0;-100;3,0;2,0;0,0;1,0;column;1,0;False;False;False;3,65100002289;True;1,13000011444
SGS1995w;experiment;2017-02-20-09-05-23;10,0;27,0;-100;0,0;1,0;2,0;3,0;column;1,0;False;False;True;3,01600003242;False;0,696000099182
SGS1995w;experiment;2017-02-20-09-05-23;10,0;28,0;-100;1,0;2,0;3,0;0,0;row;1,0;False;False;False;5,91300010681;True;1,32199978828
SGS1995w;experiment;2017-02-20-09-05-23;10,0;29,0;-100;3,0;0,0;1,0;2,0;row;0,0;False;False;False;4,68400001526;True;0,532999992371
SGS1995w;experiment;2017-02-20-09-05-23;10,0;30,0;-100;3,0;0,0;1,0;2,0;column;0,0;False;False;False;3,81599998474;True;0,734999895096
SGS1995w;experiment;2017-02-20-09-05-23;10,0;31,0;-100;0,0;3,0;1,0;2,0;row;0,0;False;False;False;4,01600003242;True;0,596999883652
SGS1995w;experiment;2017-02-20-09-05-23;10,0;32,0;-100;3,0;0,0;2,0;1,0;row;0,0;True;False;False;4,6819999218;False;1,23300004005
SGS1995w;experiment;2017-02-20-09-05-23;10,0;33,0;-100;3,0;0,0;2,0;1,0;column;1,0;False;False;False;3,34899997711;True;0,569999933243
SGS1995w;experiment;2017-02-20-09-05-23;10,0;34,0;-100;1,0;2,0;0,0;3,0;row;1,0;False;False;False;4,85000014305;True;0,730999946594
SGS1995w;experiment;2017-02-20-09-05-23;10,0;35,0;-100;2,0;1,0;0,0;3,0;column;0,0;True;False;True;4,41499996185;True;1,36099982262
SGS1995w;experiment;2017-02-20-09-05-23;10,0;36,0;-100;1,0;0,0;2,0;3,0;row;1,0;False;False;False;5,31500005722;True;0,526000022888
SGS1995w;experiment;2017-02-20-09-05-23;10,0;37,0;-100;2,0;1,0;3,0;0,0;row;1,0;False;True;False;2,81599998474;True;1,29600000381
SGS1995w;experiment;2017-02-20-09-05-23;10,0;38,0;-100;2,0;1,0;0,0;3,0;row;0,0;False;True;False;2,64699983597;True;1,3599998951
SGS1995w;experiment;2017-02-20-09-05-23;10,0;39,0;-100;1,0;3,0;0,0;2,0;column;0,0;False;True;False;3,04999995232;True;0,724999904633
SGS1995w;experiment;2017-02-20-09-05-23;10,0;40,0;-100;1,0;0,0;3,0;2,0;row;0,0;True;False;False;1,95000004768;False;1,32899999619
SGS1995w;experiment;2017-02-20-09-05-23;10,0;41,0;-100;0,0;2,0;3,0;1,0;row;0,0;False;False;False;3,31599998474;True;1,23000001907
SGS1995w;experiment;2017-02-20-09-05-23;10,0;42,0;-100;2,0;0,0;1,0;3,0;column;1,0;True;False;False;3,4509999752;False;1,43700003624
SGS1995w;experiment;2017-02-20-09-05-23;10,0;43,0;-100;1,0;0,0;2,0;3,0;row;1,0;True;False;True;4,81399989128;True;1,17000007629
SGS1995w;experiment;2017-02-20-09-05-23;10,0;44,0;-100;1,0;0,0;3,0;2,0;row;1,0;False;False;False;2,65000009537;True;0,600000143051
SGS1995w;experiment;2017-02-20-09-05-23;10,0;45,0;-100;3,0;2,0;0,0;1,0;column;0,0;False;False;False;4,05000019073;True;0,965000152588
SGS1995w;experiment;2017-02-20-09-05-23;10,0;46,0;-100;0,0;3,0;1,0;2,0;column;0,0;True;False;False;2,65000009537;False;0,930999994278
SGS1995w;experiment;2017-02-20-09-05-23;10,0;47,0;-100;1,0;0,0;2,0;3,0;row;0,0;False;True;True;8,25;False;0,864000082016
SGS1995w;experiment;2017-02-20-09-05-23;10,0;48,0;-100;0,0;2,0;3,0;1,0;column;1,0;False;True;False;3,21700000763;True;0,661000013351
SGS1995w;experiment;2017-02-20-09-05-23;11,0;1,0;100;2,0;0,0;3,0;1,0;row;0,0;False;True;False;2,33300018311;True;1,36199998856
SGS1995w;experiment;2017-02-20-09-05-23;11,0;2,0;100;0,0;2,0;3,0;1,0;column;1,0;True;True;True;2,46600008011;True;0,69000005722
SGS1995w;experiment;2017-02-20-09-05-23;11,0;3,0;100;2,0;3,0;0,0;1,0;row;1,0;True;True;False;4,99799990654;False;0,792999982834
SGS1995w;experiment;2017-02-20-09-05-23;11,0;4,0;100;3,0;0,0;1,0;2,0;row;1,0;False;False;False;4,73400020599;True;1,36599993706
SGS1995w;experiment;2017-02-20-09-05-23;11,0;5,0;100;3,0;0,0;1,0;2,0;column;0,0;False;False;False;2,367000103;True;1,06200003624
SGS1995w;experiment;2017-02-20-09-05-23;11,0;6,0;100;2,0;3,0;0,0;1,0;column;0,0;True;True;True;4,63300013542;True;1,20700001717
SGS1995w;experiment;2017-02-20-09-05-23;11,0;7,0;100;3,0;1,0;0,0;2,0;row;1,0;False;False;False;3,69900012016;True;1,49699997902
SGS1995w;experiment;2017-02-20-09-05-23;11,0;8,0;100;0,0;1,0;2,0;3,0;column;1,0;False;False;False;3,99900007248;True;0,832999944687
SGS1995w;experiment;2017-02-20-09-05-23;11,0;9,0;100;0,0;3,0;2,0;1,0;column;0,0;True;False;False;5,73300004005;False;1,10000014305
SGS1995w;experiment;2017-02-20-09-05-23;11,0;10,0;100;0,0;1,0;3,0;2,0;row;0,0;True;True;True;4,66700005531;True;1,40199995041
SGS1995w;experiment;2017-02-20-09-05-23;11,0;11,0;100;2,0;3,0;0,0;1,0;column;1,0;True;False;False;3,76699995995;False;0,858000040054
SGS1995w;experiment;2017-02-20-09-05-23;11,0;12,0;100;1,0;3,0;0,0;2,0;row;1,0;True;False;True;3,9319999218;True;0,867000102997
SGS1995w;experiment;2017-02-20-09-05-23;11,0;13,0;100;1,0;2,0;3,0;0,0;column;0,0;False;True;True;4,13400006294;False;0,658999919891
SGS1995w;experiment;2017-02-20-09-05-23;11,0;14,0;100;1,0;0,0;3,0;2,0;column;1,0;False;False;False;3,06399989128;True;1,23199987411
SGS1995w;experiment;2017-02-20-09-05-23;11,0;15,0;100;3,0;0,0;2,0;1,0;column;1,0;True;False;True;5,03299999237;True;0,52999997139
SGS1995w;experiment;2017-02-20-09-05-23;11,0;16,0;100;3,0;0,0;2,0;1,0;row;0,0;False;True;False;2,23399996758;True;0,93499994278
SGS1995w;experiment;2017-02-20-09-05-23;11,0;17,0;100;0,0;1,0;3,0;2,0;column;0,0;True;True;False;4,69899988174;False;0,930999994278
SGS1995w;experiment;2017-02-20-09-05-23;11,0;18,0;100;0,0;1,0;3,0;2,0;column;1,0;False;True;False;2,36599993706;True;1,46900010109
SGS1995w;experiment;2017-02-20-09-05-23;11,0;19,0;100;1,0;0,0;2,0;3,0;column;1,0;True;False;True;3,0;True;1,09800004959
SGS1995w;experiment;2017-02-20-09-05-23;11,0;20,0;100;3,0;0,0;1,0;2,0;row;0,0;True;False;True;2,40000009537;True;1,02900004387
SGS1995w;experiment;2017-02-20-09-05-23;11,0;21,0;100;3,0;2,0;0,0;1,0;column;0,0;False;True;False;3,39800000191;True;1,30100011826
SGS1995w;experiment;2017-02-20-09-05-23;11,0;22,0;100;0,0;2,0;1,0;3,0;row;1,0;False;False;False;3,09799981117;True;0,631000041962
SGS1995w;experiment;2017-02-20-09-05-23;11,0;23,0;100;2,0;1,0;0,0;3,0;column;0,0;False;True;False;3,23399996758;True;1,00200009346
SGS1995w;experiment;2017-02-20-09-05-23;11,0;24,0;100;0,0;1,0;3,0;2,0;column;0,0;False;True;False;4,10000014305;True;0,696000099182
SGS1995w;experiment;2017-02-20-09-05-23;11,0;25,0;100;3,0;1,0;2,0;0,0;row;0,0;False;True;False;2,83400011063;True;1,19799995422
SGS1995w;experiment;2017-02-20-09-05-23;11,0;26,0;100;3,0;2,0;0,0;1,0;column;1,0;True;False;True;2,53299999237;True;1,10199999809
SGS1995w;experiment;2017-02-20-09-05-23;11,0;27,0;100;3,0;2,0;1,0;0,0;column;0,0;True;True;False;3,5680000782;False;1,32500004768
SGS1995w;experiment;2017-02-20-09-05-23;11,0;28,0;100;1,0;3,0;2,0;0,0;row;0,0;False;False;False;4,7990000248;True;0,99799990654
SGS1995w;experiment;2017-02-20-09-05-23;11,0;29,0;100;1,0;3,0;0,0;2,0;column;0,0;False;False;False;3,63300013542;True;1,03199982643
SGS1995w;experiment;2017-02-20-09-05-23;11,0;30,0;100;2,0;1,0;0,0;3,0;row;1,0;False;True;False;7,66499996185;True;1,36800003052
SGS1995w;experiment;2017-02-20-09-05-23;11,0;31,0;100;1,0;3,0;0,0;2,0;column;1,0;True;True;True;5,76600003242;True;0,904000043869
SGS1995w;experiment;2017-02-20-09-05-23;11,0;32,0;100;1,0;0,0;3,0;2,0;row;0,0;True;False;True;3,43400001526;True;0,789999961853
SGS1995w;experiment;2017-02-20-09-05-23;11,0;33,0;100;3,0;2,0;0,0;1,0;row;1,0;True;True;True;4,16599988937;True;0,602999925613
SGS1995w;experiment;2017-02-20-09-05-23;11,0;34,0;100;1,0;0,0;3,0;2,0;row;1,0;False;True;False;2,46700000763;True;0,924000024796
SGS1995w;experiment;2017-02-20-09-05-23;11,0;35,0;100;0,0;3,0;1,0;2,0;column;1,0;True;True;True;3,83299994469;True;0,658999919891
SGS1995w;experiment;2017-02-20-09-05-23;11,0;36,0;100;0,0;3,0;1,0;2,0;row;0,0;True;False;True;4,23399996758;True;1,25499987602
SGS1995w;experiment;2017-02-20-09-05-23;11,0;37,0;100;3,0;2,0;1,0;0,0;row;1,0;True;True;False;3,13400006294;False;1,39300012589
SGS1995w;experiment;2017-02-20-09-05-23;11,0;38,0;100;1,0;2,0;0,0;3,0;column;1,0;True;True;True;5,20000004768;True;0,958999872208
SGS1995w;experiment;2017-02-20-09-05-23;11,0;39,0;100;2,0;1,0;3,0;0,0;row;0,0;True;False;True;2,5649998188;True;0,635999917984
SGS1995w;experiment;2017-02-20-09-05-23;11,0;40,0;100;2,0;3,0;0,0;1,0;column;0,0;False;True;False;2,43300008774;True;0,593000173569
SGS1995w;experiment;2017-02-20-09-05-23;11,0;41,0;100;1,0;3,0;2,0;0,0;row;0,0;True;True;True;4,29999995232;True;1,16000008583
SGS1995w;experiment;2017-02-20-09-05-23;11,0;42,0;100;1,0;0,0;2,0;3,0;row;0,0;False;True;False;3,63300013542;True;1,46499991417
SGS1995w;experiment;2017-02-20-09-05-23;11,0;43,0;100;0,0;3,0;1,0;2,0;column;0,0;False;False;False;3,26699995995;True;0,558000087738
SGS1995w;experiment;2017-02-20-09-05-23;11,0;44,0;100;1,0;3,0;2,0;0,0;column;0,0;True;False;True;4,66700005531;True;1,36299991608
SGS1995w;experiment;2017-02-20-09-05-23;11,0;45,0;100;2,0;3,0;1,0;0,0;column;1,0;False;False;False;4,00100016594;True;1,52600002289
SGS1995w;experiment;2017-02-20-09-05-23;11,0;46,0;100;1,0;0,0;3,0;2,0;column;0,0;False;True;False;4,09999990463;True;1,33200001717
SGS1995w;experiment;2017-02-20-09-05-23;11,0;47,0;100;2,0;0,0;1,0;3,0;row;0,0;True;False;False;2,26499986649;False;0,858999967575
SGS1995w;experiment;2017-02-20-09-05-23;11,0;48,0;100;3,0;2,0;1,0;0,0;row;0,0;False;False;False;3,76699995995;True;1,10199999809
SGS1995w;experiment;2017-02-20-09-05-23;12,0;1,0;1000;0,0;1,0;2,0;3,0;column;1,0;True;False;False;1,03299999237;False;1,43499994278
SGS1995w;experiment;2017-02-20-09-05-23;12,0;2,0;1000;1,0;3,0;0,0;2,0;row;0,0;True;False;True;1,43400001526;True;1,43400001526
SGS1995w;experiment;2017-02-20-09-05-23;12,0;3,0;1000;2,0;1,0;3,0;0,0;row;1,0;False;False;False;4,13400006294;True;1,03099989891
SGS1995w;experiment;2017-02-20-09-05-23;12,0;4,0;1000;1,0;3,0;2,0;0,0;row;1,0;True;True;False;1,29999995232;False;0,565999984741
SGS1995w;experiment;2017-02-20-09-05-23;12,0;5,0;1000;3,0;1,0;0,0;2,0;row;1,0;False;True;False;2,13400006294;True;1,2009999752
SGS1995w;experiment;2017-02-20-09-05-23;12,0;6,0;1000;3,0;0,0;1,0;2,0;row;1,0;False;True;False;3,96500015259;True;0,830999851227
SGS1995w;experiment;2017-02-20-09-05-23;12,0;7,0;1000;0,0;1,0;2,0;3,0;column;1,0;False;False;False;2,39999985695;True;0,697000026703
SGS1995w;experiment;2017-02-20-09-05-23;12,0;8,0;1000;3,0;2,0;0,0;1,0;column;0,0;False;True;False;2,73300004005;True;1,03199982643
SGS1995w;experiment;2017-02-20-09-05-23;12,0;9,0;1000;0,0;1,0;2,0;3,0;column;0,0;False;False;False;2,83399987221;True;0,996999979019
SGS1995w;experiment;2017-02-20-09-05-23;12,0;10,0;1000;0,0;3,0;1,0;2,0;column;1,0;True;True;False;2,19999980927;False;0,667999982834
SGS1995w;experiment;2017-02-20-09-05-23;12,0;11,0;1000;2,0;3,0;1,0;0,0;column;1,0;False;False;False;2,40000009537;True;1,30399990082
SGS1995w;experiment;2017-02-20-09-05-23;12,0;12,0;1000;0,0;1,0;3,0;2,0;row;0,0;False;False;False;1,79800009727;True;0,697999954224
SGS1995w;experiment;2017-02-20-09-05-23;12,0;13,0;1000;2,0;1,0;3,0;0,0;row;1,0;True;False;False;1,59999990463;False;0,961999893188
SGS1995w;experiment;2017-02-20-09-05-23;12,0;14,0;1000;1,0;3,0;0,0;2,0;row;1,0;True;True;True;3,09999990463;True;1,33300018311
SGS1995w;experiment;2017-02-20-09-05-23;12,0;15,0;1000;3,0;1,0;0,0;2,0;column;1,0;False;True;False;1,5;True;1,49899983406
SGS1995w;experiment;2017-02-20-09-05-23;12,0;16,0;1000;1,0;0,0;2,0;3,0;row;0,0;True;True;True;1,69799995422;True;0,96799993515
SGS1995w;experiment;2017-02-20-09-05-23;12,0;17,0;1000;3,0;0,0;2,0;1,0;row;1,0;True;True;True;3,23299980164;True;0,736000061035
SGS1995w;experiment;2017-02-20-09-05-23;12,0;18,0;1000;2,0;1,0;3,0;0,0;row;0,0;True;False;True;0,966000080109;True;1,4880001545
SGS1995w;experiment;2017-02-20-09-05-23;12,0;19,0;1000;2,0;1,0;0,0;3,0;column;1,0;False;False;True;2,2349998951;False;1,2009999752
SGS1995w;experiment;2017-02-20-09-05-23;12,0;20,0;1000;2,0;3,0;0,0;1,0;row;0,0;True;True;False;2,16600012779;False;1,32899999619
SGS1995w;experiment;2017-02-20-09-05-23;12,0;21,0;1000;3,0;2,0;1,0;0,0;row;1,0;True;False;False;1,96700000763;False;1,12900018692
SGS1995w;experiment;2017-02-20-09-05-23;12,0;22,0;1000;2,0;0,0;1,0;3,0;row;1,0;True;False;False;2,39900016785;False;0,930999994278
SGS1995w;experiment;2017-02-20-09-05-23;12,0;23,0;1000;3,0;1,0;2,0;0,0;column;0,0;False;False;True;3,33200001717;False;0,660000085831
SGS1995w;experiment;2017-02-20-09-05-23;12,0;24,0;1000;3,0;2,0;0,0;1,0;row;0,0;True;False;True;3,43399977684;True;0,932999849319
SGS1995w;experiment;2017-02-20-09-05-23;12,0;25,0;1000;1,0;3,0;0,0;2,0;row;0,0;False;False;False;3,89999985695;True;1,39499998093
SGS1995w;experiment;2017-02-20-09-05-23;12,0;26,0;1000;3,0;0,0;1,0;2,0;row;1,0;True;False;True;2,49799990654;True;0,97000002861
SGS1995w;experiment;2017-02-20-09-05-23;12,0;27,0;1000;0,0;2,0;3,0;1,0;column;1,0;True;True;True;1,36599993706;True;0,759000062943
SGS1995w;experiment;2017-02-20-09-05-23;12,0;28,0;1000;1,0;2,0;3,0;0,0;column;0,0;False;True;False;2,96600008011;True;1,03399991989
SGS1995w;experiment;2017-02-20-09-05-23;12,0;29,0;1000;2,0;3,0;0,0;1,0;column;0,0;False;False;False;2,70000004768;True;1,06599998474
SGS1995w;experiment;2017-02-20-09-05-23;12,0;30,0;1000;2,0;0,0;1,0;3,0;row;0,0;False;True;False;2,46800017357;True;1,0569999218
SGS1995w;experiment;2017-02-20-09-05-23;12,0;31,0;1000;0,0;3,0;2,0;1,0;column;1,0;False;False;False;1,89999985695;True;1,23200011253
SGS1995w;experiment;2017-02-20-09-05-23;12,0;32,0;1000;1,0;0,0;2,0;3,0;row;0,0;False;True;True;3,53299999237;False;1,2990000248
SGS1995w;experiment;2017-02-20-09-05-23;12,0;33,0;1000;3,0;1,0;0,0;2,0;column;1,0;True;True;True;2,33400011063;True;0,897000074387
SGS1995w;experiment;2017-02-20-09-05-23;12,0;34,0;1000;0,0;2,0;3,0;1,0;row;1,0;False;False;False;3,86599993706;True;1,12999987602
SGS1995w;experiment;2017-02-20-09-05-23;12,0;35,0;1000;0,0;3,0;1,0;2,0;column;0,0;True;True;True;2,83400011063;True;1,49899983406
SGS1995w;experiment;2017-02-20-09-05-23;12,0;36,0;1000;2,0;1,0;0,0;3,0;column;1,0;True;False;False;1,867000103;False;1,05599999428
SGS1995w;experiment;2017-02-20-09-05-23;12,0;37,0;1000;1,0;0,0;3,0;2,0;column;1,0;True;True;True;1,29999995232;True;1,52799987793
SGS1995w;experiment;2017-02-20-09-05-23;12,0;38,0;1000;3,0;1,0;2,0;0,0;column;1,0;False;False;False;2,23099994659;True;1,06500005722
SGS1995w;experiment;2017-02-20-09-05-23;12,0;39,0;1000;2,0;0,0;3,0;1,0;row;1,0;False;False;False;2,53399991989;True;1,16499996185
SGS1995w;experiment;2017-02-20-09-05-23;12,0;40,0;1000;3,0;0,0;1,0;2,0;column;0,0;True;True;True;2,79800009727;True;0,727999925613
SGS1995w;experiment;2017-02-20-09-05-23;12,0;41,0;1000;1,0;2,0;3,0;0,0;row;1,0;True;True;True;3,70000004768;True;0,668999910355
SGS1995w;experiment;2017-02-20-09-05-23;12,0;42,0;1000;2,0;3,0;1,0;0,0;row;1,0;False;False;False;3,76699995995;True;0,565999984741
SGS1995w;experiment;2017-02-20-09-05-23;12,0;43,0;1000;1,0;3,0;2,0;0,0;column;0,0;True;True;False;2,84599995613;False;0,559000015259
SGS1995w;experiment;2017-02-20-09-05-23;12,0;44,0;1000;2,0;1,0;3,0;0,0;column;1,0;False;False;False;2,0;True;1,06500005722
SGS1995w;experiment;2017-02-20-09-05-23;12,0;45,0;1000;2,0;1,0;3,0;0,0;row;0,0;False;False;False;1,46499991417;True;1,26699995995
SGS1995w;experiment;2017-02-20-09-05-23;12,0;46,0;1000;0,0;1,0;2,0;3,0;row;1,0;False;False;False;2,26700019836;True;0,628000020981
SGS1995w;experiment;2017-02-20-09-05-23;12,0;47,0;1000;2,0;3,0;0,0;1,0;column;1,0;True;True;True;2,36599993706;True;1,12400007248
SGS1995w;experiment;2017-02-20-09-05-23;12,0;48,0;1000;0,0;3,0;1,0;2,0;row;1,0;True;True;False;2,03200006485;False;0,866999864578
