Observer;Condition;SessionID;Block;Trial;COA;Color0;Color1;Color2;Color3;Target;Which;Match;FlipComplimentary;Response;RT;Correct;OnsetDelay
SMS1997w;experiment;2017-04-27-08-31-28;1,0;1,0;-100;1,0;2,0;0,0;3,0;row;1,0;True;False;False;1,38300013542;False;0,929000139236
SMS1997w;experiment;2017-04-27-08-31-28;1,0;2,0;-100;3,0;2,0;0,0;1,0;row;1,0;False;False;False;1,71600008011;True;1,49699997902
SMS1997w;experiment;2017-04-27-08-31-28;1,0;3,0;-100;0,0;1,0;2,0;3,0;column;0,0;True;False;True;1,21700000763;True;1,00400018692
SMS1997w;experiment;2017-04-27-08-31-28;1,0;4,0;-100;3,0;0,0;2,0;1,0;column;1,0;True;False;True;1,51699995995;True;1,28799986839
SMS1997w;experiment;2017-04-27-08-31-28;1,0;5,0;-100;0,0;2,0;1,0;3,0;column;1,0;True;True;True;1,88199996948;True;0,96799993515
SMS1997w;experiment;2017-04-27-08-31-28;1,0;6,0;-100;1,0;3,0;2,0;0,0;row;0,0;True;True;False;1,18799996376;False;0,936999797821
SMS1997w;experiment;2017-04-27-08-31-28;1,0;7,0;-100;0,0;3,0;1,0;2,0;row;1,0;True;False;False;1,65100002289;False;0,766999959946
SMS1997w;experiment;2017-04-27-08-31-28;1,0;8,0;-100;0,0;1,0;3,0;2,0;column;0,0;False;False;True;1,64100003242;False;1,06599998474
SMS1997w;experiment;2017-04-27-08-31-28;1,0;9,0;-100;1,0;0,0;2,0;3,0;column;1,0;True;False;True;1,21700000763;True;1,15499997139
SMS1997w;experiment;2017-04-27-08-31-28;1,0;10,0;-100;2,0;1,0;0,0;3,0;column;1,0;True;False;True;1,117000103;True;0,986000061035
SMS1997w;experiment;2017-04-27-08-31-28;1,0;11,0;-100;1,0;2,0;0,0;3,0;row;0,0;True;False;True;1,51600003242;True;1,36299991608
SMS1997w;experiment;2017-04-27-08-31-28;1,0;12,0;-100;0,0;2,0;1,0;3,0;row;1,0;False;True;False;1,64899992943;True;1,1970000267
SMS1997w;experiment;2017-04-27-08-31-28;1,0;13,0;-100;1,0;0,0;3,0;2,0;row;1,0;True;False;True;0,984000205994;True;0,874000072479
SMS1997w;experiment;2017-04-27-08-31-28;1,0;14,0;-100;1,0;3,0;0,0;2,0;row;0,0;True;True;True;0,916000127792;True;0,657999992371
SMS1997w;experiment;2017-04-27-08-31-28;1,0;15,0;-100;2,0;3,0;1,0;0,0;row;1,0;True;False;True;1,65000009537;True;1,35700011253
SMS1997w;experiment;2017-04-27-08-31-28;1,0;16,0;-100;2,0;1,0;3,0;0,0;column;0,0;True;False;True;0,982000112534;True;1,1970000267
SMS1997w;experiment;2017-04-27-08-31-28;1,0;17,0;-100;2,0;1,0;0,0;3,0;column;0,0;True;False;True;1,15000009537;True;1,36199998856
SMS1997w;experiment;2017-04-27-08-31-28;1,0;18,0;-100;0,0;1,0;2,0;3,0;row;1,0;True;True;False;1,18400001526;False;0,795000076294
SMS1997w;experiment;2017-04-27-08-31-28;1,0;19,0;-100;0,0;3,0;2,0;1,0;row;0,0;False;False;False;1,95000004768;True;1,13000011444
SMS1997w;experiment;2017-04-27-08-31-28;1,0;20,0;-100;3,0;1,0;2,0;0,0;column;1,0;False;False;True;1,98099994659;False;1,18899989128
SMS1997w;experiment;2017-04-27-08-31-28;1,0;21,0;-100;1,0;3,0;0,0;2,0;column;0,0;True;True;True;1,31599998474;True;1,29700016975
SMS1997w;experiment;2017-04-27-08-31-28;1,0;22,0;-100;2,0;1,0;3,0;0,0;column;1,0;False;False;False;1,18000006676;True;1,26799988747
SMS1997w;experiment;2017-04-27-08-31-28;1,0;23,0;-100;1,0;2,0;3,0;0,0;column;0,0;False;False;True;1,38400006294;False;0,536000013351
SMS1997w;experiment;2017-04-27-08-31-28;1,0;24,0;-100;1,0;2,0;0,0;3,0;row;0,0;False;False;False;1,75;True;0,628999948502
SMS1997w;experiment;2017-04-27-08-31-28;1,0;25,0;-100;2,0;3,0;1,0;0,0;row;0,0;True;True;True;1,98300004005;True;0,933000087738
SMS1997w;experiment;2017-04-27-08-31-28;1,0;26,0;-100;2,0;0,0;1,0;3,0;row;0,0;True;False;True;1,14999985695;True;1,42100000381
SMS1997w;experiment;2017-04-27-08-31-28;1,0;27,0;-100;0,0;3,0;1,0;2,0;column;0,0;True;False;False;1,18400001526;False;0,703999996185
SMS1997w;experiment;2017-04-27-08-31-28;1,0;28,0;-100;0,0;3,0;2,0;1,0;column;1,0;False;True;False;1,35099983215;True;1,42700004578
SMS1997w;experiment;2017-04-27-08-31-28;1,0;29,0;-100;2,0;3,0;0,0;1,0;row;1,0;True;False;True;1,48299980164;True;0,965000152588
SMS1997w;experiment;2017-04-27-08-31-28;1,0;30,0;-100;1,0;3,0;2,0;0,0;row;1,0;False;False;False;2,41700005531;True;1,09699988365
SMS1997w;experiment;2017-04-27-08-31-28;1,0;31,0;-100;2,0;0,0;3,0;1,0;row;1,0;True;False;True;2,0490000248;True;0,932999849319
SMS1997w;experiment;2017-04-27-08-31-28;1,0;32,0;-100;2,0;0,0;3,0;1,0;column;1,0;False;False;False;1,35000014305;True;0,558000087738
SMS1997w;experiment;2017-04-27-08-31-28;1,0;33,0;-100;2,0;1,0;3,0;0,0;column;0,0;False;True;False;1,85000014305;True;1,15899991989
SMS1997w;experiment;2017-04-27-08-31-28;1,0;34,0;-100;0,0;2,0;3,0;1,0;column;0,0;False;False;False;2,28400015831;True;1,15899991989
SMS1997w;experiment;2017-04-27-08-31-28;1,0;35,0;-100;2,0;0,0;3,0;1,0;column;1,0;True;True;True;1,98200011253;True;1,02900004387
SMS1997w;experiment;2017-04-27-08-31-28;1,0;36,0;-100;3,0;0,0;1,0;2,0;row;0,0;True;False;False;1,98099994659;False;1,46900010109
SMS1997w;experiment;2017-04-27-08-31-28;1,0;37,0;-100;2,0;0,0;1,0;3,0;row;1,0;True;False;True;1,88300013542;True;1,29799985886
SMS1997w;experiment;2017-04-27-08-31-28;1,0;38,0;-100;3,0;0,0;2,0;1,0;row;0,0;True;True;True;1,6819999218;True;0,631000041962
SMS1997w;experiment;2017-04-27-08-31-28;1,0;39,0;-100;1,0;3,0;2,0;0,0;column;0,0;True;True;True;1,64899992943;True;0,698999881744
SMS1997w;experiment;2017-04-27-08-31-28;1,0;40,0;-100;2,0;3,0;0,0;1,0;row;1,0;False;True;False;1,98200011253;True;1,5
SMS1997w;experiment;2017-04-27-08-31-28;1,0;41,0;-100;3,0;2,0;1,0;0,0;row;1,0;True;False;True;2,58299994469;True;0,700000047684
SMS1997w;experiment;2017-04-27-08-31-28;1,0;42,0;-100;3,0;2,0;1,0;0,0;column;1,0;True;False;True;1,617000103;True;0,963999986649
SMS1997w;experiment;2017-04-27-08-31-28;1,0;43,0;-100;2,0;3,0;1,0;0,0;column;1,0;True;True;True;1,91599988937;True;1,1890001297
SMS1997w;experiment;2017-04-27-08-31-28;1,0;44,0;-100;2,0;1,0;3,0;0,0;row;0,0;True;False;True;1,18300008774;True;0,799000024796
SMS1997w;experiment;2017-04-27-08-31-28;1,0;45,0;-100;3,0;2,0;0,0;1,0;row;0,0;False;False;True;1,48200011253;False;0,829999923706
SMS1997w;experiment;2017-04-27-08-31-28;1,0;46,0;-100;3,0;0,0;2,0;1,0;row;1,0;False;True;False;1,88300013542;True;0,631999969482
SMS1997w;experiment;2017-04-27-08-31-28;1,0;47,0;-100;3,0;1,0;0,0;2,0;row;0,0;False;False;False;3,31999993324;True;0,65700006485
SMS1997w;experiment;2017-04-27-08-31-28;1,0;48,0;-100;0,0;1,0;2,0;3,0;row;0,0;True;True;True;1,57300019264;True;0,967000007629
SMS1997w;experiment;2017-04-27-08-31-28;2,0;1,0;100;3,0;0,0;1,0;2,0;column;0,0;False;True;False;1,56700015068;True;1,52500009537
SMS1997w;experiment;2017-04-27-08-31-28;2,0;2,0;100;3,0;2,0;0,0;1,0;column;1,0;True;False;True;1,56699991226;True;1,4390001297
SMS1997w;experiment;2017-04-27-08-31-28;2,0;3,0;100;3,0;1,0;0,0;2,0;row;1,0;True;False;True;1,59899997711;True;1,13300013542
SMS1997w;experiment;2017-04-27-08-31-28;2,0;4,0;100;1,0;0,0;2,0;3,0;column;0,0;True;False;True;1,76799988747;True;1,39800000191
SMS1997w;experiment;2017-04-27-08-31-28;2,0;5,0;100;3,0;1,0;2,0;0,0;row;1,0;False;True;False;2,39899992943;True;0,632999897003
SMS1997w;experiment;2017-04-27-08-31-28;2,0;6,0;100;1,0;2,0;3,0;0,0;column;0,0;False;True;True;2,13199996948;False;0,861000061035
SMS1997w;experiment;2017-04-27-08-31-28;2,0;7,0;100;2,0;0,0;3,0;1,0;column;0,0;False;False;False;2,0;True;0,56200003624
SMS1997w;experiment;2017-04-27-08-31-28;2,0;8,0;100;2,0;3,0;1,0;0,0;column;1,0;True;False;True;1,63400006294;True;0,858000040054
SMS1997w;experiment;2017-04-27-08-31-28;2,0;9,0;100;1,0;0,0;3,0;2,0;row;0,0;False;False;False;1,7990000248;True;0,963000059128
SMS1997w;experiment;2017-04-27-08-31-28;2,0;10,0;100;0,0;2,0;1,0;3,0;row;0,0;True;True;True;1,86699986458;True;1,46199989319
SMS1997w;experiment;2017-04-27-08-31-28;2,0;11,0;100;2,0;1,0;0,0;3,0;row;0,0;True;False;True;2,13400006294;True;1,22799992561
SMS1997w;experiment;2017-04-27-08-31-28;2,0;12,0;100;3,0;1,0;0,0;2,0;row;1,0;False;False;False;1,33299994469;True;0,938999891281
SMS1997w;experiment;2017-04-27-08-31-28;2,0;13,0;100;2,0;3,0;0,0;1,0;column;0,0;True;True;True;0,96799993515;True;1,0680000782
SMS1997w;experiment;2017-04-27-08-31-28;2,0;14,0;100;3,0;0,0;1,0;2,0;column;1,0;True;False;False;1,23300004005;False;1,09000015259
SMS1997w;experiment;2017-04-27-08-31-28;2,0;15,0;100;1,0;2,0;3,0;0,0;column;1,0;False;False;False;1,39900016785;True;1,20399999619
SMS1997w;experiment;2017-04-27-08-31-28;2,0;16,0;100;1,0;0,0;3,0;2,0;column;0,0;True;True;True;1,49800014496;True;1,1289999485
SMS1997w;experiment;2017-04-27-08-31-28;2,0;17,0;100;0,0;1,0;2,0;3,0;column;0,0;False;False;False;1,06700015068;True;0,726000070572
SMS1997w;experiment;2017-04-27-08-31-28;2,0;18,0;100;3,0;0,0;2,0;1,0;row;0,0;True;True;True;1,53299999237;True;0,593999862671
SMS1997w;experiment;2017-04-27-08-31-28;2,0;19,0;100;3,0;1,0;0,0;2,0;column;1,0;False;True;False;1,46599984169;True;0,967000007629
SMS1997w;experiment;2017-04-27-08-31-28;2,0;20,0;100;3,0;2,0;1,0;0,0;column;1,0;False;True;False;2,39999985695;True;1,4240000248
SMS1997w;experiment;2017-04-27-08-31-28;2,0;21,0;100;1,0;0,0;2,0;3,0;column;1,0;False;False;True;1,96799993515;False;1,29800009727
SMS1997w;experiment;2017-04-27-08-31-28;2,0;22,0;100;3,0;2,0;1,0;0,0;row;0,0;True;True;False;1,8639998436;False;0,731999874115
SMS1997w;experiment;2017-04-27-08-31-28;2,0;23,0;100;2,0;0,0;1,0;3,0;column;1,0;False;True;True;1,58200001717;False;0,802000045776
SMS1997w;experiment;2017-04-27-08-31-28;2,0;24,0;100;3,0;1,0;0,0;2,0;row;0,0;False;False;False;2,03099989891;True;0,625999927521
SMS1997w;experiment;2017-04-27-08-31-28;2,0;25,0;100;1,0;3,0;0,0;2,0;row;0,0;False;True;False;1,96799993515;True;1,23100018501
SMS1997w;experiment;2017-04-27-08-31-28;2,0;26,0;100;2,0;3,0;1,0;0,0;column;0,0;True;True;True;1,59800004959;True;0,606999874115
SMS1997w;experiment;2017-04-27-08-31-28;2,0;27,0;100;1,0;0,0;2,0;3,0;row;0,0;False;False;False;1,53399991989;True;1,42900013924
SMS1997w;experiment;2017-04-27-08-31-28;2,0;28,0;100;0,0;1,0;3,0;2,0;row;0,0;True;False;True;1,96700000763;True;1,13100004196
SMS1997w;experiment;2017-04-27-08-31-28;2,0;29,0;100;2,0;1,0;3,0;0,0;column;1,0;True;False;False;1,29999995232;False;1,01800012589
SMS1997w;experiment;2017-04-27-08-31-28;2,0;30,0;100;2,0;3,0;1,0;0,0;row;1,0;False;True;False;1,33300018311;True;1,29999995232
SMS1997w;experiment;2017-04-27-08-31-28;2,0;31,0;100;0,0;3,0;1,0;2,0;column;1,0;False;True;False;1,70000004768;True;0,563999891281
SMS1997w;experiment;2017-04-27-08-31-28;2,0;32,0;100;3,0;0,0;2,0;1,0;column;0,0;True;False;True;1,36600017548;True;0,755999803543
SMS1997w;experiment;2017-04-27-08-31-28;2,0;33,0;100;0,0;1,0;3,0;2,0;row;1,0;True;False;True;1,49899983406;True;1,33299994469
SMS1997w;experiment;2017-04-27-08-31-28;2,0;34,0;100;1,0;3,0;2,0;0,0;column;0,0;False;True;False;1,16700005531;True;1,4960000515
SMS1997w;experiment;2017-04-27-08-31-28;2,0;35,0;100;0,0;3,0;1,0;2,0;row;1,0;True;False;False;1,30100011826;False;1,02999997139
SMS1997w;experiment;2017-04-27-08-31-28;2,0;36,0;100;0,0;1,0;3,0;2,0;column;1,0;False;False;False;1,83299994469;True;0,557000160217
SMS1997w;experiment;2017-04-27-08-31-28;2,0;37,0;100;3,0;2,0;1,0;0,0;column;0,0;False;False;False;1,23300004005;True;0,96799993515
SMS1997w;experiment;2017-04-27-08-31-28;2,0;38,0;100;3,0;1,0;2,0;0,0;column;0,0;False;True;False;1,23200011253;True;0,53200006485
SMS1997w;experiment;2017-04-27-08-31-28;2,0;39,0;100;1,0;0,0;2,0;3,0;column;1,0;True;False;False;1,46700000763;False;1,29699993134
SMS1997w;experiment;2017-04-27-08-31-28;2,0;40,0;100;2,0;1,0;3,0;0,0;row;0,0;True;False;True;1,56599998474;True;0,868000030518
SMS1997w;experiment;2017-04-27-08-31-28;2,0;41,0;100;1,0;0,0;3,0;2,0;row;1,0;True;True;True;2,06699991226;True;0,560000181198
SMS1997w;experiment;2017-04-27-08-31-28;2,0;42,0;100;1,0;2,0;3,0;0,0;column;0,0;True;True;True;2,26699995995;True;0,864000082016
SMS1997w;experiment;2017-04-27-08-31-28;2,0;43,0;100;0,0;3,0;2,0;1,0;row;1,0;False;True;False;1,44099998474;True;0,828999996185
SMS1997w;experiment;2017-04-27-08-31-28;2,0;44,0;100;2,0;1,0;0,0;3,0;row;1,0;True;True;False;1,13300013542;False;0,798000097275
SMS1997w;experiment;2017-04-27-08-31-28;2,0;45,0;100;1,0;3,0;2,0;0,0;row;1,0;False;False;False;1,79799985886;True;1,16599988937
SMS1997w;experiment;2017-04-27-08-31-28;2,0;46,0;100;3,0;1,0;2,0;0,0;column;0,0;True;False;True;2,0649998188;True;1,22299981117
SMS1997w;experiment;2017-04-27-08-31-28;2,0;47,0;100;0,0;3,0;1,0;2,0;column;0,0;False;True;False;1,56599998474;True;0,923000097275
SMS1997w;experiment;2017-04-27-08-31-28;2,0;48,0;100;1,0;0,0;3,0;2,0;column;1,0;True;True;True;1,59999990463;True;0,766000032425
SMS1997w;experiment;2017-04-27-08-31-28;3,0;1,0;1000;0,0;3,0;2,0;1,0;column;1,0;False;False;True;0,998000144958;False;0,602999925613
SMS1997w;experiment;2017-04-27-08-31-28;3,0;2,0;1000;3,0;0,0;2,0;1,0;column;1,0;True;True;True;0,799999952316;True;0,537999868393
SMS1997w;experiment;2017-04-27-08-31-28;3,0;3,0;1000;1,0;0,0;3,0;2,0;column;0,0;True;True;True;0,934000015259;True;0,958000183105
SMS1997w;experiment;2017-04-27-08-31-28;3,0;4,0;1000;3,0;0,0;1,0;2,0;column;1,0;False;False;True;1,0;False;0,830999851227
SMS1997w;experiment;2017-04-27-08-31-28;3,0;5,0;1000;0,0;3,0;2,0;1,0;row;1,0;True;False;True;1,53500008583;True;1,23300004005
SMS1997w;experiment;2017-04-27-08-31-28;3,0;6,0;1000;2,0;3,0;1,0;0,0;row;1,0;False;False;True;1,76699995995;False;1,49799990654
SMS1997w;experiment;2017-04-27-08-31-28;3,0;7,0;1000;3,0;2,0;1,0;0,0;row;0,0;False;False;False;1,53299999237;True;0,572000026703
SMS1997w;experiment;2017-04-27-08-31-28;3,0;8,0;1000;2,0;3,0;0,0;1,0;column;1,0;True;True;True;2,49900007248;True;1,06900000572
SMS1997w;experiment;2017-04-27-08-31-28;3,0;9,0;1000;3,0;2,0;1,0;0,0;column;1,0;False;False;False;1,132999897;True;0,930999994278
SMS1997w;experiment;2017-04-27-08-31-28;3,0;10,0;1000;2,0;0,0;3,0;1,0;column;0,0;False;True;True;1,79999995232;False;1,32999992371
SMS1997w;experiment;2017-04-27-08-31-28;3,0;11,0;1000;2,0;1,0;3,0;0,0;row;1,0;False;False;False;1,29999995232;True;0,623999834061
SMS1997w;experiment;2017-04-27-08-31-28;3,0;12,0;1000;1,0;3,0;0,0;2,0;column;1,0;False;False;False;1,29999995232;True;0,565999984741
SMS1997w;experiment;2017-04-27-08-31-28;3,0;13,0;1000;1,0;2,0;0,0;3,0;column;1,0;True;False;False;1,53299999237;False;1,29899978638
SMS1997w;experiment;2017-04-27-08-31-28;3,0;14,0;1000;1,0;3,0;0,0;2,0;row;1,0;False;False;True;1,53400015831;False;0,796999931335
SMS1997w;experiment;2017-04-27-08-31-28;3,0;15,0;1000;1,0;2,0;0,0;3,0;row;1,0;True;True;True;1,5;True;0,667999982834
SMS1997w;experiment;2017-04-27-08-31-28;3,0;16,0;1000;1,0;0,0;2,0;3,0;row;1,0;True;False;True;1,60000014305;True;0,764000177383
SMS1997w;experiment;2017-04-27-08-31-28;3,0;17,0;1000;0,0;3,0;1,0;2,0;row;1,0;False;False;False;1,43299984932;True;0,856999874115
SMS1997w;experiment;2017-04-27-08-31-28;3,0;18,0;1000;3,0;1,0;2,0;0,0;row;1,0;False;True;False;1,73399996758;True;1,43400001526
SMS1997w;experiment;2017-04-27-08-31-28;3,0;19,0;1000;0,0;1,0;2,0;3,0;row;1,0;True;False;True;1,73300004005;True;1,36200022697
SMS1997w;experiment;2017-04-27-08-31-28;3,0;20,0;1000;0,0;3,0;1,0;2,0;row;1,0;True;False;True;1,53399991989;True;1,50300002098
SMS1997w;experiment;2017-04-27-08-31-28;3,0;21,0;1000;3,0;0,0;2,0;1,0;column;0,0;False;False;False;2,83300018311;True;0,563999891281
SMS1997w;experiment;2017-04-27-08-31-28;3,0;22,0;1000;3,0;0,0;1,0;2,0;column;1,0;True;False;True;1,56699991226;True;1,2650001049
SMS1997w;experiment;2017-04-27-08-31-28;3,0;23,0;1000;1,0;3,0;2,0;0,0;row;0,0;False;False;False;1,53299999237;True;0,697000026703
SMS1997w;experiment;2017-04-27-08-31-28;3,0;24,0;1000;2,0;0,0;1,0;3,0;row;0,0;True;False;False;1,73300004005;False;0,828999996185
SMS1997w;experiment;2017-04-27-08-31-28;3,0;25,0;1000;0,0;2,0;3,0;1,0;column;1,0;True;True;True;1,367000103;True;0,56200003624
SMS1997w;experiment;2017-04-27-08-31-28;3,0;26,0;1000;2,0;3,0;1,0;0,0;column;1,0;True;False;False;0,967000007629;False;1,29799985886
SMS1997w;experiment;2017-04-27-08-31-28;3,0;27,0;1000;2,0;1,0;3,0;0,0;column;1,0;False;False;False;1,9319999218;True;1,46900010109
SMS1997w;experiment;2017-04-27-08-31-28;3,0;28,0;1000;3,0;1,0;2,0;0,0;row;0,0;True;False;True;1,43299984932;True;0,960999965668
SMS1997w;experiment;2017-04-27-08-31-28;3,0;29,0;1000;1,0;0,0;3,0;2,0;row;0,0;True;True;True;1,96700000763;True;1,15700006485
SMS1997w;experiment;2017-04-27-08-31-28;3,0;30,0;1000;2,0;1,0;3,0;0,0;column;0,0;False;False;False;1,83299994469;True;0,667000055313
SMS1997w;experiment;2017-04-27-08-31-28;3,0;31,0;1000;1,0;3,0;2,0;0,0;row;1,0;True;False;False;2,5;False;1,13199996948
SMS1997w;experiment;2017-04-27-08-31-28;3,0;32,0;1000;3,0;2,0;1,0;0,0;column;0,0;True;True;False;2,13499999046;False;0,638000011444
SMS1997w;experiment;2017-04-27-08-31-28;3,0;33,0;1000;3,0;0,0;1,0;2,0;column;0,0;False;False;False;1,70000004768;True;0,868000030518
SMS1997w;experiment;2017-04-27-08-31-28;3,0;34,0;1000;0,0;2,0;1,0;3,0;row;1,0;True;False;True;2,16700005531;True;1,4960000515
SMS1997w;experiment;2017-04-27-08-31-28;3,0;35,0;1000;0,0;2,0;3,0;1,0;row;1,0;False;True;False;1,73300004005;True;0,52999997139
SMS1997w;experiment;2017-04-27-08-31-28;3,0;36,0;1000;3,0;1,0;0,0;2,0;row;1,0;True;False;False;1,33299994469;False;1,10600018501
SMS1997w;experiment;2017-04-27-08-31-28;3,0;37,0;1000;1,0;2,0;0,0;3,0;row;0,0;False;False;False;1,0;True;1,36199998856
SMS1997w;experiment;2017-04-27-08-31-28;3,0;38,0;1000;2,0;0,0;1,0;3,0;row;0,0;False;False;False;1,33399987221;True;0,901000022888
SMS1997w;experiment;2017-04-27-08-31-28;3,0;39,0;1000;2,0;0,0;3,0;1,0;row;0,0;True;False;False;1,23199987411;False;1,45399999619
SMS1997w;experiment;2017-04-27-08-31-28;3,0;40,0;1000;1,0;0,0;2,0;3,0;column;1,0;True;False;False;1,53699994087;False;0,903000116348
SMS1997w;experiment;2017-04-27-08-31-28;3,0;41,0;1000;3,0;2,0;0,0;1,0;column;1,0;False;True;True;1,367000103;False;1,26399993896
SMS1997w;experiment;2017-04-27-08-31-28;3,0;42,0;1000;3,0;1,0;0,0;2,0;row;1,0;False;True;False;1,59700012207;True;0,628999948502
SMS1997w;experiment;2017-04-27-08-31-28;3,0;43,0;1000;0,0;1,0;3,0;2,0;row;1,0;True;False;False;1,90000009537;False;0,694999933243
SMS1997w;experiment;2017-04-27-08-31-28;3,0;44,0;1000;3,0;1,0;2,0;0,0;column;0,0;True;True;False;1,56599998474;False;0,595999956131
SMS1997w;experiment;2017-04-27-08-31-28;3,0;45,0;1000;1,0;2,0;0,0;3,0;column;0,0;False;False;False;1,367000103;True;1,46400022507
SMS1997w;experiment;2017-04-27-08-31-28;3,0;46,0;1000;2,0;1,0;0,0;3,0;column;1,0;True;False;False;1,59999990463;False;0,634999990463
SMS1997w;experiment;2017-04-27-08-31-28;3,0;47,0;1000;0,0;2,0;1,0;3,0;row;0,0;False;False;True;2,37199997902;False;1,46499991417
SMS1997w;experiment;2017-04-27-08-31-28;3,0;48,0;1000;2,0;0,0;3,0;1,0;row;1,0;False;False;False;1,43399977684;True;0,601000070572
SMS1997w;experiment;2017-04-27-08-31-28;4,0;1,0;100;0,0;3,0;1,0;2,0;column;1,0;True;False;True;1,86499977112;True;1,50199985504
SMS1997w;experiment;2017-04-27-08-31-28;4,0;2,0;100;0,0;3,0;2,0;1,0;column;0,0;False;False;False;1,4319999218;True;0,865000009537
SMS1997w;experiment;2017-04-27-08-31-28;4,0;3,0;100;0,0;3,0;2,0;1,0;column;0,0;True;True;True;1,09999990463;True;1,00099992752
SMS1997w;experiment;2017-04-27-08-31-28;4,0;4,0;100;0,0;3,0;2,0;1,0;row;0,0;False;False;False;1,20000004768;True;0,655000209808
SMS1997w;experiment;2017-04-27-08-31-28;4,0;5,0;100;1,0;0,0;2,0;3,0;row;1,0;True;False;False;1,83299994469;False;1,33200001717
SMS1997w;experiment;2017-04-27-08-31-28;4,0;6,0;100;0,0;2,0;1,0;3,0;column;1,0;True;True;True;1,5;True;0,667999982834
SMS1997w;experiment;2017-04-27-08-31-28;4,0;7,0;100;3,0;0,0;2,0;1,0;row;1,0;True;True;False;1,29999995232;False;1,05999994278
SMS1997w;experiment;2017-04-27-08-31-28;4,0;8,0;100;3,0;2,0;0,0;1,0;column;1,0;False;False;False;1,89999985695;True;0,956999778748
SMS1997w;experiment;2017-04-27-08-31-28;4,0;9,0;100;1,0;2,0;0,0;3,0;row;1,0;True;True;False;1,46700000763;False;0,56500005722
SMS1997w;experiment;2017-04-27-08-31-28;4,0;10,0;100;2,0;1,0;0,0;3,0;column;1,0;True;False;False;1,86699986458;False;1,06599998474
SMS1997w;experiment;2017-04-27-08-31-28;4,0;11,0;100;2,0;0,0;1,0;3,0;row;1,0;False;True;False;1,63399982452;True;1,09800004959
SMS1997w;experiment;2017-04-27-08-31-28;4,0;12,0;100;3,0;2,0;0,0;1,0;row;1,0;True;False;False;2,43299984932;False;0,892999887466
SMS1997w;experiment;2017-04-27-08-31-28;4,0;13,0;100;0,0;3,0;1,0;2,0;column;0,0;True;False;True;1,46600008011;True;0,572999954224
SMS1997w;experiment;2017-04-27-08-31-28;4,0;14,0;100;1,0;3,0;2,0;0,0;column;1,0;True;False;True;2,5;True;1,29699993134
SMS1997w;experiment;2017-04-27-08-31-28;4,0;15,0;100;3,0;0,0;2,0;1,0;column;1,0;True;True;True;1,43400001526;True;0,536000013351
SMS1997w;experiment;2017-04-27-08-31-28;4,0;16,0;100;0,0;3,0;2,0;1,0;row;1,0;True;False;True;1,5;True;0,634000062943
SMS1997w;experiment;2017-04-27-08-31-28;4,0;17,0;100;0,0;2,0;1,0;3,0;row;1,0;True;True;False;1,73100018501;False;0,963999986649
SMS1997w;experiment;2017-04-27-08-31-28;4,0;18,0;100;3,0;1,0;2,0;0,0;column;1,0;True;True;True;1,36600017548;True;0,799000024796
SMS1997w;experiment;2017-04-27-08-31-28;4,0;19,0;100;3,0;0,0;1,0;2,0;column;1,0;False;False;False;1,33299994469;True;0,90499997139
SMS1997w;experiment;2017-04-27-08-31-28;4,0;20,0;100;2,0;0,0;3,0;1,0;column;0,0;True;True;True;1,40100002289;True;1,23099994659
SMS1997w;experiment;2017-04-27-08-31-28;4,0;21,0;100;2,0;0,0;3,0;1,0;row;1,0;False;False;False;1,36500000954;True;1,4889998436
SMS1997w;experiment;2017-04-27-08-31-28;4,0;22,0;100;2,0;1,0;3,0;0,0;column;1,0;False;False;False;1,36699986458;True;0,894999980927
SMS1997w;experiment;2017-04-27-08-31-28;4,0;23,0;100;1,0;0,0;2,0;3,0;row;0,0;True;False;False;1,53299999237;False;1,0649998188
SMS1997w;experiment;2017-04-27-08-31-28;4,0;24,0;100;2,0;0,0;1,0;3,0;row;1,0;True;False;False;1,43499994278;False;1,16400003433
SMS1997w;experiment;2017-04-27-08-31-28;4,0;25,0;100;2,0;3,0;1,0;0,0;row;0,0;True;True;True;1,59999990463;True;0,555000066757
SMS1997w;experiment;2017-04-27-08-31-28;4,0;26,0;100;2,0;1,0;0,0;3,0;row;1,0;False;True;False;1,40100002289;True;0,53200006485
SMS1997w;experiment;2017-04-27-08-31-28;4,0;27,0;100;3,0;0,0;2,0;1,0;row;1,0;False;False;False;1,7990000248;True;1,39899992943
SMS1997w;experiment;2017-04-27-08-31-28;4,0;28,0;100;1,0;3,0;2,0;0,0;column;0,0;True;False;True;2,26700019836;True;1,38799977303
SMS1997w;experiment;2017-04-27-08-31-28;4,0;29,0;100;0,0;2,0;3,0;1,0;row;1,0;False;False;False;2,2990000248;True;0,864000082016
SMS1997w;experiment;2017-04-27-08-31-28;4,0;30,0;100;1,0;2,0;3,0;0,0;row;0,0;False;True;False;1,70000004768;True;1,16499996185
SMS1997w;experiment;2017-04-27-08-31-28;4,0;31,0;100;0,0;3,0;2,0;1,0;column;1,0;False;False;False;1,46600008011;True;1,132999897
SMS1997w;experiment;2017-04-27-08-31-28;4,0;32,0;100;0,0;3,0;1,0;2,0;row;0,0;True;False;True;1,46599984169;True;0,955999851227
SMS1997w;experiment;2017-04-27-08-31-28;4,0;33,0;100;1,0;0,0;3,0;2,0;row;0,0;True;True;True;1,7990000248;True;0,655999898911
SMS1997w;experiment;2017-04-27-08-31-28;4,0;34,0;100;0,0;2,0;3,0;1,0;row;1,0;True;True;False;1,69999980927;False;1,132999897
SMS1997w;experiment;2017-04-27-08-31-28;4,0;35,0;100;2,0;0,0;3,0;1,0;row;0,0;False;True;False;1,73399996758;True;1,16299986839
SMS1997w;experiment;2017-04-27-08-31-28;4,0;36,0;100;0,0;3,0;2,0;1,0;row;0,0;True;True;True;1,23399996758;True;1,22199988365
SMS1997w;experiment;2017-04-27-08-31-28;4,0;37,0;100;3,0;0,0;1,0;2,0;row;0,0;False;True;False;1,367000103;True;1,43099999428
SMS1997w;experiment;2017-04-27-08-31-28;4,0;38,0;100;3,0;2,0;0,0;1,0;row;0,0;True;False;True;1,63300013542;True;0,703000068665
SMS1997w;experiment;2017-04-27-08-31-28;4,0;39,0;100;1,0;2,0;0,0;3,0;column;1,0;False;True;True;1,33299994469;False;0,536000013351
SMS1997w;experiment;2017-04-27-08-31-28;4,0;40,0;100;1,0;3,0;0,0;2,0;column;0,0;True;True;True;1,5;True;0,568000078201
SMS1997w;experiment;2017-04-27-08-31-28;4,0;41,0;100;2,0;1,0;3,0;0,0;row;1,0;True;False;False;1,26699995995;False;1,06200003624
SMS1997w;experiment;2017-04-27-08-31-28;4,0;42,0;100;0,0;2,0;1,0;3,0;row;1,0;False;False;False;1,06599998474;True;0,526999950409
SMS1997w;experiment;2017-04-27-08-31-28;4,0;43,0;100;2,0;3,0;0,0;1,0;column;0,0;False;False;False;1,36699986458;True;1,09600019455
SMS1997w;experiment;2017-04-27-08-31-28;4,0;44,0;100;2,0;3,0;0,0;1,0;row;0,0;True;True;True;1,20000004768;True;0,728999853134
SMS1997w;experiment;2017-04-27-08-31-28;4,0;45,0;100;1,0;2,0;0,0;3,0;column;0,0;False;False;False;1,53400015831;True;1,09500002861
SMS1997w;experiment;2017-04-27-08-31-28;4,0;46,0;100;0,0;1,0;2,0;3,0;column;1,0;False;True;False;1,06599998474;True;0,868999958038
SMS1997w;experiment;2017-04-27-08-31-28;4,0;47,0;100;0,0;1,0;2,0;3,0;row;1,0;True;False;True;2,13199996948;True;0,568000078201
SMS1997w;experiment;2017-04-27-08-31-28;4,0;48,0;100;1,0;0,0;2,0;3,0;row;1,0;False;False;False;1,23400020599;True;1,19400000572
SMS1997w;experiment;2017-04-27-08-31-28;5,0;1,0;1000;0,0;2,0;3,0;1,0;column;0,0;False;False;False;1,13999986649;True;1,20200014114
SMS1997w;experiment;2017-04-27-08-31-28;5,0;2,0;1000;1,0;0,0;3,0;2,0;column;0,0;False;False;False;1,16700005531;True;1,38800001144
SMS1997w;experiment;2017-04-27-08-31-28;5,0;3,0;1000;3,0;0,0;2,0;1,0;row;0,0;False;False;False;1,86600017548;True;1,25699996948
SMS1997w;experiment;2017-04-27-08-31-28;5,0;4,0;1000;1,0;3,0;0,0;2,0;column;0,0;True;True;False;1,76699995995;False;1,02800011635
SMS1997w;experiment;2017-04-27-08-31-28;5,0;5,0;1000;2,0;3,0;1,0;0,0;row;0,0;True;True;True;1,56699991226;True;0,996999979019
SMS1997w;experiment;2017-04-27-08-31-28;5,0;6,0;1000;2,0;1,0;0,0;3,0;row;0,0;False;False;True;1,53500008583;False;0,930999994278
SMS1997w;experiment;2017-04-27-08-31-28;5,0;7,0;1000;1,0;2,0;0,0;3,0;column;0,0;True;False;False;1,10000014305;False;0,892999887466
SMS1997w;experiment;2017-04-27-08-31-28;5,0;8,0;1000;0,0;3,0;1,0;2,0;column;1,0;False;True;False;0,898999929428;True;0,598000049591
SMS1997w;experiment;2017-04-27-08-31-28;5,0;9,0;1000;2,0;1,0;3,0;0,0;row;1,0;True;False;True;1,66599988937;True;1,09800004959
SMS1997w;experiment;2017-04-27-08-31-28;5,0;10,0;1000;3,0;0,0;2,0;1,0;column;0,0;True;False;False;0,800000190735;False;1,36500000954
SMS1997w;experiment;2017-04-27-08-31-28;5,0;11,0;1000;1,0;3,0;0,0;2,0;column;1,0;True;True;True;1,80099987984;True;0,894999980927
SMS1997w;experiment;2017-04-27-08-31-28;5,0;12,0;1000;1,0;0,0;2,0;3,0;row;1,0;False;False;False;1,33299994469;True;1,46399998665
SMS1997w;experiment;2017-04-27-08-31-28;5,0;13,0;1000;2,0;0,0;1,0;3,0;column;0,0;True;False;True;1,03299999237;True;0,969000101089
SMS1997w;experiment;2017-04-27-08-31-28;5,0;14,0;1000;0,0;2,0;1,0;3,0;column;1,0;True;False;False;1,46599984169;False;0,694999933243
SMS1997w;experiment;2017-04-27-08-31-28;5,0;15,0;1000;0,0;3,0;2,0;1,0;row;0,0;False;True;False;1,29999995232;True;0,865000009537
SMS1997w;experiment;2017-04-27-08-31-28;5,0;16,0;1000;2,0;0,0;1,0;3,0;row;1,0;False;True;False;1,2009999752;True;0,868000030518
SMS1997w;experiment;2017-04-27-08-31-28;5,0;17,0;1000;2,0;1,0;3,0;0,0;row;0,0;True;False;True;1,367000103;True;0,573999881744
SMS1997w;experiment;2017-04-27-08-31-28;5,0;18,0;1000;2,0;0,0;1,0;3,0;row;1,0;True;True;True;1,43400001526;True;0,792000055313
SMS1997w;experiment;2017-04-27-08-31-28;5,0;19,0;1000;1,0;2,0;3,0;0,0;column;1,0;True;False;True;1,63199996948;True;1,32800006866
SMS1997w;experiment;2017-04-27-08-31-28;5,0;20,0;1000;1,0;0,0;3,0;2,0;column;1,0;False;True;False;1,20000004768;True;1,36599993706
SMS1997w;experiment;2017-04-27-08-31-28;5,0;21,0;1000;2,0;1,0;0,0;3,0;column;1,0;False;True;False;2,46700000763;True;0,862999916077
SMS1997w;experiment;2017-04-27-08-31-28;5,0;22,0;1000;1,0;2,0;3,0;0,0;row;1,0;False;False;False;1,89999985695;True;1,20699977875
SMS1997w;experiment;2017-04-27-08-31-28;5,0;23,0;1000;2,0;1,0;3,0;0,0;row;0,0;False;True;False;1,83299994469;True;0,669000148773
SMS1997w;experiment;2017-04-27-08-31-28;5,0;24,0;1000;0,0;2,0;1,0;3,0;column;0,0;False;True;True;2,19899988174;False;0,595999956131
SMS1997w;experiment;2017-04-27-08-31-28;5,0;25,0;1000;1,0;3,0;2,0;0,0;column;1,0;True;False;True;1,53099989891;True;0,570999860764
SMS1997w;experiment;2017-04-27-08-31-28;5,0;26,0;1000;2,0;3,0;1,0;0,0;column;1,0;False;False;False;0,934000015259;True;1,46600008011
SMS1997w;experiment;2017-04-27-08-31-28;5,0;27,0;1000;3,0;0,0;2,0;1,0;row;1,0;True;False;True;1,93400001526;True;1,32899999619
SMS1997w;experiment;2017-04-27-08-31-28;5,0;28,0;1000;0,0;1,0;3,0;2,0;column;0,0;False;True;False;1,53500008583;True;1,13100004196
SMS1997w;experiment;2017-04-27-08-31-28;5,0;29,0;1000;0,0;2,0;3,0;1,0;row;1,0;True;False;True;1,66599988937;True;1,16099977493
SMS1997w;experiment;2017-04-27-08-31-28;5,0;30,0;1000;1,0;3,0;2,0;0,0;column;0,0;False;False;True;1,96700000763;False;1,02799987793
SMS1997w;experiment;2017-04-27-08-31-28;5,0;31,0;1000;2,0;1,0;3,0;0,0;column;1,0;True;True;True;1,13499999046;True;1,39599990845
SMS1997w;experiment;2017-04-27-08-31-28;5,0;32,0;1000;1,0;3,0;2,0;0,0;column;1,0;False;True;False;1,0110001564;True;0,557999849319
SMS1997w;experiment;2017-04-27-08-31-28;5,0;33,0;1000;0,0;3,0;1,0;2,0;row;0,0;True;True;True;1,66700005531;True;1,36199998856
SMS1997w;experiment;2017-04-27-08-31-28;5,0;34,0;1000;0,0;3,0;1,0;2,0;column;0,0;True;False;True;1,73400020599;True;1,4359998703
SMS1997w;experiment;2017-04-27-08-31-28;5,0;35,0;1000;3,0;0,0;2,0;1,0;column;1,0;False;False;True;2,10000014305;False;0,539000034332
SMS1997w;experiment;2017-04-27-08-31-28;5,0;36,0;1000;3,0;0,0;1,0;2,0;column;0,0;True;True;False;1,36600017548;False;0,732999801636
SMS1997w;experiment;2017-04-27-08-31-28;5,0;37,0;1000;2,0;1,0;0,0;3,0;column;0,0;True;False;True;1,26499986649;True;0,5640001297
SMS1997w;experiment;2017-04-27-08-31-28;5,0;38,0;1000;1,0;2,0;3,0;0,0;column;1,0;False;True;True;1,10199999809;False;1,32400012016
SMS1997w;experiment;2017-04-27-08-31-28;5,0;39,0;1000;0,0;1,0;3,0;2,0;row;0,0;False;True;False;1,39999985695;True;1,33500003815
SMS1997w;experiment;2017-04-27-08-31-28;5,0;40,0;1000;3,0;0,0;1,0;2,0;row;0,0;False;True;False;0,934000015259;True;1,20399999619
SMS1997w;experiment;2017-04-27-08-31-28;5,0;41,0;1000;2,0;1,0;3,0;0,0;column;0,0;True;False;True;1,5;True;1,03400015831
SMS1997w;experiment;2017-04-27-08-31-28;5,0;42,0;1000;2,0;0,0;1,0;3,0;column;1,0;True;True;False;1,26599979401;False;0,798000097275
SMS1997w;experiment;2017-04-27-08-31-28;5,0;43,0;1000;3,0;2,0;0,0;1,0;row;0,0;True;True;False;1,60000014305;False;1,36500000954
SMS1997w;experiment;2017-04-27-08-31-28;5,0;44,0;1000;2,0;3,0;0,0;1,0;column;0,0;True;True;True;1,30000019073;True;1,10400009155
SMS1997w;experiment;2017-04-27-08-31-28;5,0;45,0;1000;0,0;1,0;3,0;2,0;column;1,0;True;False;True;0,934000015259;True;0,695000171661
SMS1997w;experiment;2017-04-27-08-31-28;5,0;46,0;1000;3,0;1,0;0,0;2,0;row;0,0;True;False;False;1,96700000763;False;0,629999876022
SMS1997w;experiment;2017-04-27-08-31-28;5,0;47,0;1000;3,0;2,0;0,0;1,0;column;1,0;True;False;True;0,932999849319;True;0,631999969482
SMS1997w;experiment;2017-04-27-08-31-28;5,0;48,0;1000;1,0;2,0;0,0;3,0;row;0,0;True;True;True;1,36599993706;True;1,46499991417
SMS1997w;experiment;2017-04-27-08-31-28;6,0;1,0;-100;2,0;3,0;1,0;0,0;column;0,0;False;False;False;1,28099989891;True;1,28999996185
SMS1997w;experiment;2017-04-27-08-31-28;6,0;2,0;-100;2,0;3,0;0,0;1,0;column;0,0;False;True;False;0,882999897003;True;0,770999908447
SMS1997w;experiment;2017-04-27-08-31-28;6,0;3,0;-100;1,0;3,0;2,0;0,0;column;1,0;True;True;False;1,61599993706;False;1,16599988937
SMS1997w;experiment;2017-04-27-08-31-28;6,0;4,0;-100;3,0;1,0;0,0;2,0;column;1,0;False;True;False;1,25;True;1,09899997711
SMS1997w;experiment;2017-04-27-08-31-28;6,0;5,0;-100;3,0;1,0;0,0;2,0;column;0,0;True;False;True;2,1819999218;True;1,40299987793
SMS1997w;experiment;2017-04-27-08-31-28;6,0;6,0;-100;1,0;0,0;3,0;2,0;column;1,0;True;False;False;1,65400004387;False;0,756000041962
SMS1997w;experiment;2017-04-27-08-31-28;6,0;7,0;-100;1,0;3,0;0,0;2,0;row;1,0;False;False;False;1,36599993706;True;1,40799999237
SMS1997w;experiment;2017-04-27-08-31-28;6,0;8,0;-100;1,0;0,0;3,0;2,0;column;0,0;True;True;True;1,71700000763;True;1,4319999218
SMS1997w;experiment;2017-04-27-08-31-28;6,0;9,0;-100;3,0;1,0;0,0;2,0;column;0,0;False;True;False;1,91599988937;True;1,36500000954
SMS1997w;experiment;2017-04-27-08-31-28;6,0;10,0;-100;1,0;2,0;3,0;0,0;column;1,0;False;False;False;1,71699976921;True;0,669999837875
SMS1997w;experiment;2017-04-27-08-31-28;6,0;11,0;-100;1,0;0,0;2,0;3,0;row;0,0;True;True;True;1,28400015831;True;0,823000192642
SMS1997w;experiment;2017-04-27-08-31-28;6,0;12,0;-100;1,0;2,0;3,0;0,0;row;1,0;True;True;True;1,64800000191;True;1,25800013542
SMS1997w;experiment;2017-04-27-08-31-28;6,0;13,0;-100;0,0;1,0;3,0;2,0;row;1,0;False;False;False;1,01800012589;True;1,0039999485
SMS1997w;experiment;2017-04-27-08-31-28;6,0;14,0;-100;3,0;0,0;1,0;2,0;column;1,0;False;False;False;1,25;True;1,16199994087
SMS1997w;experiment;2017-04-27-08-31-28;6,0;15,0;-100;3,0;1,0;2,0;0,0;column;1,0;True;False;True;1,25;True;0,697000026703
SMS1997w;experiment;2017-04-27-08-31-28;6,0;16,0;-100;3,0;1,0;2,0;0,0;row;0,0;False;False;False;1,18300008774;True;0,599999904633
SMS1997w;experiment;2017-04-27-08-31-28;6,0;17,0;-100;3,0;1,0;0,0;2,0;column;1,0;True;False;True;1,24900007248;True;1,30100011826
SMS1997w;experiment;2017-04-27-08-31-28;6,0;18,0;-100;2,0;0,0;3,0;1,0;row;0,0;False;False;False;1,38300013542;True;1,30000019073
SMS1997w;experiment;2017-04-27-08-31-28;6,0;19,0;-100;1,0;0,0;2,0;3,0;column;0,0;True;True;True;1,45000004768;True;0,829999923706
SMS1997w;experiment;2017-04-27-08-31-28;6,0;20,0;-100;0,0;2,0;1,0;3,0;column;0,0;True;False;True;1,64699983597;True;0,737999916077
SMS1997w;experiment;2017-04-27-08-31-28;6,0;21,0;-100;0,0;1,0;3,0;2,0;column;1,0;False;True;False;1,21700000763;True;0,564999818802
SMS1997w;experiment;2017-04-27-08-31-28;6,0;22,0;-100;0,0;2,0;1,0;3,0;column;0,0;False;False;False;1,4509999752;True;1,49900007248
SMS1997w;experiment;2017-04-27-08-31-28;6,0;23,0;-100;1,0;3,0;0,0;2,0;column;1,0;True;False;True;1,21700000763;True;0,670000076294
SMS1997w;experiment;2017-04-27-08-31-28;6,0;24,0;-100;2,0;0,0;1,0;3,0;column;0,0;True;False;False;1,382999897;False;1,26399993896
SMS1997w;experiment;2017-04-27-08-31-28;6,0;25,0;-100;0,0;3,0;2,0;1,0;column;0,0;False;True;True;1,74799990654;False;1,0039999485
SMS1997w;experiment;2017-04-27-08-31-28;6,0;26,0;-100;0,0;2,0;1,0;3,0;row;0,0;False;False;False;1,14999985695;True;0,964999914169
SMS1997w;experiment;2017-04-27-08-31-28;6,0;27,0;-100;3,0;2,0;1,0;0,0;column;0,0;False;True;False;1,14800000191;True;1,29600000381
SMS1997w;experiment;2017-04-27-08-31-28;6,0;28,0;-100;0,0;2,0;3,0;1,0;column;0,0;True;False;False;1,21700000763;False;0,828999996185
SMS1997w;experiment;2017-04-27-08-31-28;6,0;29,0;-100;0,0;1,0;2,0;3,0;row;0,0;False;False;False;1,45000004768;True;1,4319999218
SMS1997w;experiment;2017-04-27-08-31-28;6,0;30,0;-100;1,0;3,0;0,0;2,0;column;0,0;False;False;False;1,28299999237;True;0,962000131607
SMS1997w;experiment;2017-04-27-08-31-28;6,0;31,0;-100;1,0;2,0;3,0;0,0;row;1,0;False;False;False;1,72599983215;True;1,20499992371
SMS1997w;experiment;2017-04-27-08-31-28;6,0;32,0;-100;0,0;3,0;2,0;1,0;column;0,0;True;False;False;1,4509999752;False;0,863999843597
SMS1997w;experiment;2017-04-27-08-31-28;6,0;33,0;-100;2,0;3,0;0,0;1,0;row;0,0;False;True;False;1,44999980927;True;1,20000004768
SMS1997w;experiment;2017-04-27-08-31-28;6,0;34,0;-100;3,0;0,0;2,0;1,0;column;1,0;False;False;False;1,56299996376;True;1,33200001717
SMS1997w;experiment;2017-04-27-08-31-28;6,0;35,0;-100;2,0;0,0;3,0;1,0;column;0,0;True;True;True;1,51999998093;True;0,739000082016
SMS1997w;experiment;2017-04-27-08-31-28;6,0;36,0;-100;2,0;1,0;0,0;3,0;column;1,0;False;True;False;1,56599998474;True;1,47099995613
SMS1997w;experiment;2017-04-27-08-31-28;6,0;37,0;-100;0,0;1,0;2,0;3,0;column;0,0;False;False;False;1,28200006485;True;1,0720000267
SMS1997w;experiment;2017-04-27-08-31-28;6,0;38,0;-100;1,0;3,0;0,0;2,0;row;0,0;False;False;False;1,34800004959;True;1,39199995995
SMS1997w;experiment;2017-04-27-08-31-28;6,0;39,0;-100;3,0;1,0;2,0;0,0;row;0,0;True;True;True;1,34800004959;True;0,696000099182
SMS1997w;experiment;2017-04-27-08-31-28;6,0;40,0;-100;0,0;3,0;1,0;2,0;row;0,0;True;False;True;0,783999919891;True;1,19899988174
SMS1997w;experiment;2017-04-27-08-31-28;6,0;41,0;-100;0,0;3,0;1,0;2,0;row;1,0;False;False;False;1,3069999218;True;0,625
SMS1997w;experiment;2017-04-27-08-31-28;6,0;42,0;-100;3,0;0,0;2,0;1,0;row;1,0;True;True;True;1,34999990463;True;0,789999961853
SMS1997w;experiment;2017-04-27-08-31-28;6,0;43,0;-100;2,0;3,0;1,0;0,0;column;1,0;False;False;False;1,68300008774;True;0,733000040054
SMS1997w;experiment;2017-04-27-08-31-28;6,0;44,0;-100;1,0;3,0;2,0;0,0;row;0,0;False;True;False;1,51699995995;True;0,863000154495
SMS1997w;experiment;2017-04-27-08-31-28;6,0;45,0;-100;1,0;3,0;0,0;2,0;row;1,0;True;False;True;1,5490000248;True;0,905999898911
SMS1997w;experiment;2017-04-27-08-31-28;6,0;46,0;-100;0,0;1,0;3,0;2,0;row;0,0;False;True;False;1,4960000515;True;0,894999980927
SMS1997w;experiment;2017-04-27-08-31-28;6,0;47,0;-100;3,0;0,0;2,0;1,0;row;0,0;False;False;False;0,948999881744;True;0,601999998093
SMS1997w;experiment;2017-04-27-08-31-28;6,0;48,0;-100;0,0;3,0;2,0;1,0;row;1,0;True;True;True;1,382999897;True;1,23099994659
SMS1997w;experiment;2017-04-27-08-31-28;7,0;1,0;-100;1,0;2,0;0,0;3,0;row;1,0;False;False;False;1,51600003242;True;0,632999897003
SMS1997w;experiment;2017-04-27-08-31-28;7,0;2,0;-100;0,0;2,0;3,0;1,0;row;1,0;False;True;False;1,41700005531;True;0,740999937057
SMS1997w;experiment;2017-04-27-08-31-28;7,0;3,0;-100;3,0;2,0;1,0;0,0;row;0,0;False;True;False;1,28399991989;True;1,4279999733
SMS1997w;experiment;2017-04-27-08-31-28;7,0;4,0;-100;1,0;3,0;0,0;2,0;column;1,0;False;True;False;1,24900007248;True;1,09899997711
SMS1997w;experiment;2017-04-27-08-31-28;7,0;5,0;-100;3,0;2,0;0,0;1,0;column;0,0;False;False;False;1,21599984169;True;0,561000108719
SMS1997w;experiment;2017-04-27-08-31-28;7,0;6,0;-100;3,0;0,0;2,0;1,0;column;0,0;True;True;True;1,51699995995;True;0,929000139236
SMS1997w;experiment;2017-04-27-08-31-28;7,0;7,0;-100;2,0;0,0;1,0;3,0;row;0,0;False;False;False;1,31500005722;True;1,33100008965
SMS1997w;experiment;2017-04-27-08-31-28;7,0;8,0;-100;3,0;1,0;0,0;2,0;row;1,0;False;True;False;1,31500005722;True;0,699000120163
SMS1997w;experiment;2017-04-27-08-31-28;7,0;9,0;-100;3,0;1,0;2,0;0,0;column;0,0;True;False;True;1,34899997711;True;0,825000047684
SMS1997w;experiment;2017-04-27-08-31-28;7,0;10,0;-100;3,0;0,0;1,0;2,0;row;1,0;False;False;False;1,18400001526;True;0,868999958038
SMS1997w;experiment;2017-04-27-08-31-28;7,0;11,0;-100;1,0;3,0;2,0;0,0;row;1,0;True;True;True;1,382999897;True;0,697999954224
SMS1997w;experiment;2017-04-27-08-31-28;7,0;12,0;-100;2,0;1,0;3,0;0,0;row;0,0;False;True;False;1,31699991226;True;0,763000011444
SMS1997w;experiment;2017-04-27-08-31-28;7,0;13,0;-100;0,0;1,0;3,0;2,0;row;1,0;True;False;True;1,21700000763;True;0,667000055313
SMS1997w;experiment;2017-04-27-08-31-28;7,0;14,0;-100;1,0;3,0;2,0;0,0;column;0,0;False;False;False;0,947999954224;True;1,29299998283
SMS1997w;experiment;2017-04-27-08-31-28;7,0;15,0;-100;0,0;1,0;2,0;3,0;row;1,0;False;False;False;1,41499996185;True;0,957999944687
SMS1997w;experiment;2017-04-27-08-31-28;7,0;16,0;-100;1,0;3,0;2,0;0,0;column;1,0;False;False;False;1,85000014305;True;1,29999995232
SMS1997w;experiment;2017-04-27-08-31-28;7,0;17,0;-100;1,0;0,0;2,0;3,0;row;0,0;False;True;False;1,14899992943;True;1,29799985886
SMS1997w;experiment;2017-04-27-08-31-28;7,0;18,0;-100;2,0;3,0;0,0;1,0;column;1,0;False;True;False;1,54999995232;True;0,663000106812
SMS1997w;experiment;2017-04-27-08-31-28;7,0;19,0;-100;0,0;1,0;3,0;2,0;column;1,0;True;False;True;1,68400001526;True;1,12800002098
SMS1997w;experiment;2017-04-27-08-31-28;7,0;20,0;-100;1,0;0,0;3,0;2,0;row;0,0;False;False;False;1,48300004005;True;0,539000034332
SMS1997w;experiment;2017-04-27-08-31-28;7,0;21,0;-100;3,0;2,0;1,0;0,0;row;1,0;False;True;False;1,21700000763;True;1,13400006294
SMS1997w;experiment;2017-04-27-08-31-28;7,0;22,0;-100;3,0;2,0;0,0;1,0;row;1,0;True;True;False;1,54999995232;False;0,861999988556
SMS1997w;experiment;2017-04-27-08-31-28;7,0;23,0;-100;3,0;2,0;1,0;0,0;column;1,0;False;True;False;1,38400006294;True;0,723999977112
SMS1997w;experiment;2017-04-27-08-31-28;7,0;24,0;-100;0,0;2,0;3,0;1,0;column;1,0;True;True;True;1,45100021362;True;0,59500002861
SMS1997w;experiment;2017-04-27-08-31-28;7,0;25,0;-100;0,0;1,0;2,0;3,0;column;1,0;True;True;True;1,61599993706;True;1,45700001717
SMS1997w;experiment;2017-04-27-08-31-28;7,0;26,0;-100;2,0;0,0;3,0;1,0;column;0,0;False;False;False;1,24799990654;True;0,854999780655
SMS1997w;experiment;2017-04-27-08-31-28;7,0;27,0;-100;2,0;0,0;1,0;3,0;column;1,0;False;False;False;1,31599998474;True;1,03100013733
SMS1997w;experiment;2017-04-27-08-31-28;7,0;28,0;-100;3,0;1,0;0,0;2,0;row;0,0;True;True;True;1,35000014305;True;0,933000087738
SMS1997w;experiment;2017-04-27-08-31-28;7,0;29,0;-100;1,0;0,0;2,0;3,0;column;1,0;False;True;False;1,28299999237;True;0,999000072479
SMS1997w;experiment;2017-04-27-08-31-28;7,0;30,0;-100;2,0;3,0;0,0;1,0;row;0,0;True;True;True;1,58299994469;True;1,39700007439
SMS1997w;experiment;2017-04-27-08-31-28;7,0;31,0;-100;2,0;1,0;0,0;3,0;row;0,0;True;True;True;1,28299999237;True;0,934000015259
SMS1997w;experiment;2017-04-27-08-31-28;7,0;32,0;-100;3,0;0,0;1,0;2,0;column;1,0;True;False;True;1,48399996758;True;1,03100013733
SMS1997w;experiment;2017-04-27-08-31-28;7,0;33,0;-100;1,0;2,0;0,0;3,0;column;0,0;False;True;False;1,41599988937;True;1,19999980927
SMS1997w;experiment;2017-04-27-08-31-28;7,0;34,0;-100;3,0;1,0;2,0;0,0;row;1,0;False;False;False;1,24900007248;True;1,4319999218
SMS1997w;experiment;2017-04-27-08-31-28;7,0;35,0;-100;2,0;0,0;3,0;1,0;row;1,0;False;False;False;1,14800000191;True;1,15899991989
SMS1997w;experiment;2017-04-27-08-31-28;7,0;36,0;-100;0,0;3,0;1,0;2,0;column;1,0;False;True;False;0,915999889374;True;1,02999997139
SMS1997w;experiment;2017-04-27-08-31-28;7,0;37,0;-100;3,0;2,0;0,0;1,0;column;1,0;False;True;False;1,08399987221;True;0,792999982834
SMS1997w;experiment;2017-04-27-08-31-28;7,0;38,0;-100;0,0;2,0;3,0;1,0;row;0,0;False;True;False;1,11699986458;True;1,50199985504
SMS1997w;experiment;2017-04-27-08-31-28;7,0;39,0;-100;0,0;1,0;3,0;2,0;row;0,0;True;True;True;1,19599986076;True;0,868999958038
SMS1997w;experiment;2017-04-27-08-31-28;7,0;40,0;-100;0,0;3,0;2,0;1,0;row;0,0;True;True;True;0,816999912262;True;1,43700003624
SMS1997w;experiment;2017-04-27-08-31-28;7,0;41,0;-100;0,0;2,0;1,0;3,0;row;0,0;True;False;True;0,815999984741;True;0,833999872208
SMS1997w;experiment;2017-04-27-08-31-28;7,0;42,0;-100;3,0;2,0;0,0;1,0;column;1,0;True;True;True;1,18799996376;True;1,30099987984
SMS1997w;experiment;2017-04-27-08-31-28;7,0;43,0;-100;3,0;2,0;1,0;0,0;column;0,0;True;True;True;1,23300004005;True;1,33400011063
SMS1997w;experiment;2017-04-27-08-31-28;7,0;44,0;-100;0,0;3,0;1,0;2,0;column;1,0;True;True;True;1,21600008011;True;0,68700003624
SMS1997w;experiment;2017-04-27-08-31-28;7,0;45,0;-100;0,0;3,0;1,0;2,0;row;0,0;False;True;False;1,58299994469;True;0,596999883652
SMS1997w;experiment;2017-04-27-08-31-28;7,0;46,0;-100;0,0;2,0;1,0;3,0;column;1,0;False;False;False;1,68400001526;True;0,931999921799
SMS1997w;experiment;2017-04-27-08-31-28;7,0;47,0;-100;1,0;2,0;3,0;0,0;column;0,0;True;True;True;1,24899983406;True;1,39900016785
SMS1997w;experiment;2017-04-27-08-31-28;7,0;48,0;-100;1,0;0,0;2,0;3,0;row;1,0;True;True;True;1,35100007057;True;1,00600004196
SMS1997w;experiment;2017-04-27-08-31-28;8,0;1,0;1000;3,0;1,0;2,0;0,0;column;1,0;False;True;False;0,967000007629;True;1,03299999237
SMS1997w;experiment;2017-04-27-08-31-28;8,0;2,0;1000;3,0;2,0;0,0;1,0;column;0,0;False;False;False;1,29999995232;True;1,06399989128
SMS1997w;experiment;2017-04-27-08-31-28;8,0;3,0;1000;1,0;2,0;3,0;0,0;column;0,0;False;True;False;0,933000087738;True;0,986999988556
SMS1997w;experiment;2017-04-27-08-31-28;8,0;4,0;1000;2,0;3,0;1,0;0,0;row;1,0;True;False;True;1,57299995422;True;1,04800009727
SMS1997w;experiment;2017-04-27-08-31-28;8,0;5,0;1000;1,0;0,0;2,0;3,0;row;0,0;False;False;False;1,36699986458;True;1,33800005913
SMS1997w;experiment;2017-04-27-08-31-28;8,0;6,0;1000;1,0;0,0;3,0;2,0;row;1,0;True;False;False;1,13300013542;False;1,13300013542
SMS1997w;experiment;2017-04-27-08-31-28;8,0;7,0;1000;3,0;1,0;2,0;0,0;column;0,0;False;True;False;0,867000102997;True;1,03299999237
SMS1997w;experiment;2017-04-27-08-31-28;8,0;8,0;1000;1,0;2,0;3,0;0,0;row;1,0;True;True;True;1,46800017357;True;0,729000091553
SMS1997w;experiment;2017-04-27-08-31-28;8,0;9,0;1000;3,0;2,0;1,0;0,0;row;0,0;True;True;False;1,9319999218;False;1,42700004578
SMS1997w;experiment;2017-04-27-08-31-28;8,0;10,0;1000;1,0;0,0;2,0;3,0;column;1,0;False;True;False;1,83000016212;True;0,564999818802
SMS1997w;experiment;2017-04-27-08-31-28;8,0;11,0;1000;2,0;3,0;0,0;1,0;row;1,0;True;False;True;1,43400001526;True;1,29400014877
SMS1997w;experiment;2017-04-27-08-31-28;8,0;12,0;1000;3,0;1,0;2,0;0,0;row;0,0;False;False;False;0,800000190735;True;0,697000026703
SMS1997w;experiment;2017-04-27-08-31-28;8,0;13,0;1000;0,0;3,0;2,0;1,0;row;0,0;True;True;True;1,46799993515;True;1,39699983597
SMS1997w;experiment;2017-04-27-08-31-28;8,0;14,0;1000;0,0;3,0;2,0;1,0;column;1,0;True;False;False;1,16700005531;False;1,10299992561
SMS1997w;experiment;2017-04-27-08-31-28;8,0;15,0;1000;2,0;0,0;3,0;1,0;row;0,0;False;True;False;0,865999937057;True;1,39600014687
SMS1997w;experiment;2017-04-27-08-31-28;8,0;16,0;1000;3,0;2,0;1,0;0,0;column;1,0;True;False;True;1,36599993706;True;1,06399989128
SMS1997w;experiment;2017-04-27-08-31-28;8,0;17,0;1000;0,0;2,0;1,0;3,0;row;1,0;False;False;False;1,23300004005;True;0,763999938965
SMS1997w;experiment;2017-04-27-08-31-28;8,0;18,0;1000;0,0;3,0;2,0;1,0;row;1,0;False;False;False;1,13300013542;True;0,998000144958
SMS1997w;experiment;2017-04-27-08-31-28;8,0;19,0;1000;3,0;0,0;2,0;1,0;row;0,0;True;False;True;1,53299999237;True;0,965000152588
SMS1997w;experiment;2017-04-27-08-31-28;8,0;20,0;1000;3,0;2,0;1,0;0,0;row;1,0;False;True;False;1,64299988747;True;0,796999931335
SMS1997w;experiment;2017-04-27-08-31-28;8,0;21,0;1000;0,0;1,0;2,0;3,0;column;0,0;False;True;False;1,16599988937;True;1,46099996567
SMS1997w;experiment;2017-04-27-08-31-28;8,0;22,0;1000;1,0;0,0;3,0;2,0;column;1,0;True;True;False;1,33399987221;False;1,26600003242
SMS1997w;experiment;2017-04-27-08-31-28;8,0;23,0;1000;3,0;1,0;0,0;2,0;column;1,0;True;False;False;1,33299994469;False;1,39700007439
SMS1997w;experiment;2017-04-27-08-31-28;8,0;24,0;1000;0,0;1,0;3,0;2,0;column;0,0;True;False;True;2,23000001907;True;0,896999835968
SMS1997w;experiment;2017-04-27-08-31-28;8,0;25,0;1000;1,0;2,0;3,0;0,0;column;0,0;True;True;True;0,966000080109;True;0,896999835968
SMS1997w;experiment;2017-04-27-08-31-28;8,0;26,0;1000;2,0;3,0;1,0;0,0;row;0,0;False;False;False;1,30000019073;True;1,27300000191
SMS1997w;experiment;2017-04-27-08-31-28;8,0;27,0;1000;2,0;0,0;1,0;3,0;column;0,0;False;False;False;1,16600012779;True;1,0
SMS1997w;experiment;2017-04-27-08-31-28;8,0;28,0;1000;1,0;3,0;2,0;0,0;row;1,0;False;True;False;1,66599988937;True;1,42200016975
SMS1997w;experiment;2017-04-27-08-31-28;8,0;29,0;1000;2,0;3,0;0,0;1,0;column;0,0;False;True;False;1,33299994469;True;1,43700003624
SMS1997w;experiment;2017-04-27-08-31-28;8,0;30,0;1000;3,0;1,0;2,0;0,0;row;1,0;True;False;False;1,66400003433;False;0,763999938965
SMS1997w;experiment;2017-04-27-08-31-28;8,0;31,0;1000;3,0;0,0;1,0;2,0;row;0,0;True;False;True;1,89800000191;True;1,19899988174
SMS1997w;experiment;2017-04-27-08-31-28;8,0;32,0;1000;0,0;2,0;1,0;3,0;row;0,0;True;True;False;1,56699991226;False;0,900000095367
SMS1997w;experiment;2017-04-27-08-31-28;8,0;33,0;1000;1,0;3,0;0,0;2,0;row;0,0;False;False;True;1,79999995232;False;0,531000137329
SMS1997w;experiment;2017-04-27-08-31-28;8,0;34,0;1000;0,0;3,0;2,0;1,0;column;0,0;True;False;True;1,367000103;True;1,46399998665
SMS1997w;experiment;2017-04-27-08-31-28;8,0;35,0;1000;3,0;2,0;0,0;1,0;row;1,0;False;True;True;1,23399996758;False;1,5039999485
SMS1997w;experiment;2017-04-27-08-31-28;8,0;36,0;1000;3,0;1,0;0,0;2,0;column;0,0;True;False;True;0,999000072479;True;1,4390001297
SMS1997w;experiment;2017-04-27-08-31-28;8,0;37,0;1000;0,0;1,0;2,0;3,0;row;0,0;False;True;False;1,29999995232;True;1,02400016785
SMS1997w;experiment;2017-04-27-08-31-28;8,0;38,0;1000;2,0;1,0;0,0;3,0;row;1,0;False;True;False;1,33400011063;True;1,06300020218
SMS1997w;experiment;2017-04-27-08-31-28;8,0;39,0;1000;0,0;1,0;2,0;3,0;row;1,0;False;True;False;1,09900021553;True;0,635999917984
SMS1997w;experiment;2017-04-27-08-31-28;8,0;40,0;1000;1,0;0,0;3,0;2,0;row;1,0;False;True;False;0,865999937057;True;1,00099992752
SMS1997w;experiment;2017-04-27-08-31-28;8,0;41,0;1000;0,0;1,0;2,0;3,0;row;0,0;True;False;False;0,899999856949;False;0,623000144958
SMS1997w;experiment;2017-04-27-08-31-28;8,0;42,0;1000;3,0;1,0;0,0;2,0;row;0,0;False;True;False;1,20000004768;True;0,598000049591
SMS1997w;experiment;2017-04-27-08-31-28;8,0;43,0;1000;1,0;0,0;2,0;3,0;row;0,0;True;True;False;1,49900007248;False;0,904000043869
SMS1997w;experiment;2017-04-27-08-31-28;8,0;44,0;1000;2,0;0,0;3,0;1,0;column;1,0;True;True;True;1,2990000248;True;0,93399977684
SMS1997w;experiment;2017-04-27-08-31-28;8,0;45,0;1000;3,0;2,0;0,0;1,0;row;1,0;True;True;False;1,66799998283;False;1,19000005722
SMS1997w;experiment;2017-04-27-08-31-28;8,0;46,0;1000;2,0;0,0;3,0;1,0;column;0,0;True;False;True;1,367000103;True;1,06900000572
SMS1997w;experiment;2017-04-27-08-31-28;8,0;47,0;1000;2,0;3,0;0,0;1,0;column;1,0;False;True;False;0,932999849319;True;1,39700007439
SMS1997w;experiment;2017-04-27-08-31-28;8,0;48,0;1000;1,0;0,0;3,0;2,0;row;0,0;False;False;True;1,632999897;False;0,673000097275
SMS1997w;experiment;2017-04-27-08-31-28;9,0;1,0;100;1,0;2,0;3,0;0,0;row;0,0;True;True;False;0,97000002861;False;0,866000175476
SMS1997w;experiment;2017-04-27-08-31-28;9,0;2,0;100;1,0;2,0;3,0;0,0;row;1,0;False;True;False;1,46700000763;True;0,723000049591
SMS1997w;experiment;2017-04-27-08-31-28;9,0;3,0;100;0,0;1,0;2,0;3,0;column;0,0;True;False;True;1,53299999237;True;0,702999830246
SMS1997w;experiment;2017-04-27-08-31-28;9,0;4,0;100;0,0;3,0;1,0;2,0;row;0,0;False;True;False;1,7990000248;True;1,39299988747
SMS1997w;experiment;2017-04-27-08-31-28;9,0;5,0;100;0,0;1,0;2,0;3,0;column;1,0;True;True;True;2,05599999428;True;1,46500015259
SMS1997w;experiment;2017-04-27-08-31-28;9,0;6,0;100;2,0;3,0;0,0;1,0;row;0,0;False;True;False;1,36699986458;True;0,835999965668
SMS1997w;experiment;2017-04-27-08-31-28;9,0;7,0;100;2,0;1,0;3,0;0,0;row;1,0;False;True;False;1,56599998474;True;0,52999997139
SMS1997w;experiment;2017-04-27-08-31-28;9,0;8,0;100;1,0;3,0;0,0;2,0;row;1,0;True;True;False;1,367000103;False;0,700000047684
SMS1997w;experiment;2017-04-27-08-31-28;9,0;9,0;100;2,0;0,0;1,0;3,0;row;0,0;True;True;True;1,867000103;True;1,16599988937
SMS1997w;experiment;2017-04-27-08-31-28;9,0;10,0;100;1,0;3,0;2,0;0,0;row;0,0;True;True;True;2,43300008774;True;0,998999834061
SMS1997w;experiment;2017-04-27-08-31-28;9,0;11,0;100;0,0;2,0;1,0;3,0;row;0,0;False;True;False;1,39999985695;True;0,538000106812
SMS1997w;experiment;2017-04-27-08-31-28;9,0;12,0;100;3,0;0,0;2,0;1,0;column;1,0;False;False;False;1,16699981689;True;1,49799990654
SMS1997w;experiment;2017-04-27-08-31-28;9,0;13,0;100;3,0;0,0;2,0;1,0;row;0,0;False;False;False;1,19899988174;True;1,125
SMS1997w;experiment;2017-04-27-08-31-28;9,0;14,0;100;3,0;0,0;1,0;2,0;row;1,0;True;False;False;1,33299994469;False;1,40499997139
SMS1997w;experiment;2017-04-27-08-31-28;9,0;15,0;100;0,0;1,0;3,0;2,0;column;0,0;False;False;True;1,867000103;False;0,990000009537
SMS1997w;experiment;2017-04-27-08-31-28;9,0;16,0;100;2,0;1,0;3,0;0,0;column;0,0;False;True;False;1,23299980164;True;1,49800014496
SMS1997w;experiment;2017-04-27-08-31-28;9,0;17,0;100;0,0;1,0;2,0;3,0;row;0,0;False;True;False;1,36599993706;True;1,25900006294
SMS1997w;experiment;2017-04-27-08-31-28;9,0;18,0;100;1,0;3,0;0,0;2,0;column;1,0;True;False;True;1,33400011063;True;0,633000135422
SMS1997w;experiment;2017-04-27-08-31-28;9,0;19,0;100;2,0;3,0;0,0;1,0;column;1,0;False;True;False;1,76699995995;True;0,725000143051
SMS1997w;experiment;2017-04-27-08-31-28;9,0;20,0;100;2,0;1,0;0,0;3,0;row;0,0;False;False;False;1,26600003242;True;0,596999883652
SMS1997w;experiment;2017-04-27-08-31-28;9,0;21,0;100;0,0;2,0;1,0;3,0;column;0,0;False;False;False;1,43300008774;True;0,697999954224
SMS1997w;experiment;2017-04-27-08-31-28;9,0;22,0;100;2,0;0,0;3,0;1,0;column;1,0;True;False;True;1,20000004768;True;0,630999803543
SMS1997w;experiment;2017-04-27-08-31-28;9,0;23,0;100;0,0;2,0;3,0;1,0;column;0,0;True;True;True;1,06599998474;True;1,49699997902
SMS1997w;experiment;2017-04-27-08-31-28;9,0;24,0;100;2,0;1,0;0,0;3,0;column;0,0;False;True;False;1,10000014305;True;1,09899997711
SMS1997w;experiment;2017-04-27-08-31-28;9,0;25,0;100;2,0;3,0;0,0;1,0;row;1,0;True;False;True;1,33300018311;True;1,49099993706
SMS1997w;experiment;2017-04-27-08-31-28;9,0;26,0;100;1,0;3,0;0,0;2,0;row;0,0;True;False;True;0,967000007629;True;0,93799996376
SMS1997w;experiment;2017-04-27-08-31-28;9,0;27,0;100;0,0;1,0;3,0;2,0;column;1,0;True;True;True;1,09899997711;True;1,36500000954
SMS1997w;experiment;2017-04-27-08-31-28;9,0;28,0;100;3,0;2,0;1,0;0,0;row;1,0;True;False;False;1,26800012589;False;1,43299984932
SMS1997w;experiment;2017-04-27-08-31-28;9,0;29,0;100;0,0;2,0;1,0;3,0;column;1,0;False;False;False;1,36500000954;True;1,33299994469
SMS1997w;experiment;2017-04-27-08-31-28;9,0;30,0;100;2,0;0,0;3,0;1,0;row;0,0;True;False;False;1,4319999218;False;1,25999999046
SMS1997w;experiment;2017-04-27-08-31-28;9,0;31,0;100;1,0;3,0;0,0;2,0;column;1,0;False;True;False;1,5;True;0,730999946594
SMS1997w;experiment;2017-04-27-08-31-28;9,0;32,0;100;2,0;0,0;1,0;3,0;row;0,0;False;True;False;1,30199980736;True;1,46300005913
SMS1997w;experiment;2017-04-27-08-31-28;9,0;33,0;100;2,0;3,0;0,0;1,0;column;1,0;True;True;False;1,40000009537;False;1,19900012016
SMS1997w;experiment;2017-04-27-08-31-28;9,0;34,0;100;3,0;0,0;2,0;1,0;column;0,0;False;False;False;1,63400006294;True;0,921999931335
SMS1997w;experiment;2017-04-27-08-31-28;9,0;35,0;100;3,0;0,0;1,0;2,0;column;0,0;True;True;False;1,39999985695;False;1,39800000191
SMS1997w;experiment;2017-04-27-08-31-28;9,0;36,0;100;1,0;3,0;0,0;2,0;column;0,0;False;False;False;1,43499994278;True;1,02600002289
SMS1997w;experiment;2017-04-27-08-31-28;9,0;37,0;100;1,0;3,0;0,0;2,0;row;1,0;False;False;False;1,73300004005;True;1,22300004959
SMS1997w;experiment;2017-04-27-08-31-28;9,0;38,0;100;3,0;1,0;2,0;0,0;row;0,0;False;False;False;0,933000087738;True;1,33299994469
SMS1997w;experiment;2017-04-27-08-31-28;9,0;39,0;100;2,0;1,0;3,0;0,0;row;0,0;False;False;False;1,39899992943;True;0,55999994278
SMS1997w;experiment;2017-04-27-08-31-28;9,0;40,0;100;2,0;3,0;1,0;0,0;column;0,0;False;False;False;1,40100002289;True;1,06700015068
SMS1997w;experiment;2017-04-27-08-31-28;9,0;41,0;100;2,0;3,0;1,0;0,0;row;1,0;True;True;False;1,26600003242;False;1,40300011635
SMS1997w;experiment;2017-04-27-08-31-28;9,0;42,0;100;2,0;0,0;3,0;1,0;column;1,0;False;False;False;1,367000103;True;1,46700000763
SMS1997w;experiment;2017-04-27-08-31-28;9,0;43,0;100;1,0;2,0;0,0;3,0;row;0,0;False;False;False;1,03299999237;True;0,561000108719
SMS1997w;experiment;2017-04-27-08-31-28;9,0;44,0;100;2,0;0,0;1,0;3,0;column;0,0;True;False;True;1,56700015068;True;0,634000062943
SMS1997w;experiment;2017-04-27-08-31-28;9,0;45,0;100;0,0;1,0;2,0;3,0;row;1,0;False;False;False;1,5;True;0,632999897003
SMS1997w;experiment;2017-04-27-08-31-28;9,0;46,0;100;0,0;1,0;2,0;3,0;row;0,0;True;False;True;1,29999995232;True;1,17100000381
SMS1997w;experiment;2017-04-27-08-31-28;9,0;47,0;100;0,0;1,0;3,0;2,0;row;0,0;False;False;False;1,1320002079;True;1,41899991035
SMS1997w;experiment;2017-04-27-08-31-28;9,0;48,0;100;3,0;1,0;2,0;0,0;row;1,0;True;False;True;1,66600012779;True;1,02699995041
SMS1997w;experiment;2017-04-27-08-31-28;10,0;1,0;-100;1,0;2,0;0,0;3,0;column;1,0;False;False;False;1,15900015831;True;1,11299991608
SMS1997w;experiment;2017-04-27-08-31-28;10,0;2,0;-100;2,0;1,0;3,0;0,0;row;1,0;False;False;False;1,25100016594;True;1,43099999428
SMS1997w;experiment;2017-04-27-08-31-28;10,0;3,0;-100;1,0;0,0;3,0;2,0;row;0,0;True;True;True;1,58400011063;True;1,36599993706
SMS1997w;experiment;2017-04-27-08-31-28;10,0;4,0;-100;1,0;2,0;3,0;0,0;row;0,0;False;False;False;1,21700000763;True;0,565999984741
SMS1997w;experiment;2017-04-27-08-31-28;10,0;5,0;-100;3,0;1,0;2,0;0,0;row;1,0;True;False;True;1,41600012779;True;1,12999987602
SMS1997w;experiment;2017-04-27-08-31-28;10,0;6,0;-100;0,0;2,0;1,0;3,0;row;1,0;True;True;True;1,48300004005;True;1,0569999218
SMS1997w;experiment;2017-04-27-08-31-28;10,0;7,0;-100;2,0;1,0;0,0;3,0;column;0,0;False;False;False;1,64999985695;True;0,703000068665
SMS1997w;experiment;2017-04-27-08-31-28;10,0;8,0;-100;2,0;0,0;1,0;3,0;column;0,0;False;False;False;1,01699995995;True;1,12999987602
SMS1997w;experiment;2017-04-27-08-31-28;10,0;9,0;-100;1,0;0,0;2,0;3,0;column;0,0;False;False;False;1,11500000954;True;0,632000207901
SMS1997w;experiment;2017-04-27-08-31-28;10,0;10,0;-100;2,0;0,0;3,0;1,0;row;0,0;True;True;True;1,31799983978;True;0,796999931335
SMS1997w;experiment;2017-04-27-08-31-28;10,0;11,0;-100;2,0;3,0;1,0;0,0;column;0,0;True;True;True;1,1819999218;True;1,3630001545
SMS1997w;experiment;2017-04-27-08-31-28;10,0;12,0;-100;0,0;2,0;3,0;1,0;row;0,0;True;False;True;1,36299991608;True;1,17500019073
SMS1997w;experiment;2017-04-27-08-31-28;10,0;13,0;-100;0,0;2,0;3,0;1,0;column;1,0;False;False;False;1,34899997711;True;0,830999851227
SMS1997w;experiment;2017-04-27-08-31-28;10,0;14,0;-100;2,0;3,0;1,0;0,0;row;1,0;False;True;False;2,38399982452;True;1,39199995995
SMS1997w;experiment;2017-04-27-08-31-28;10,0;15,0;-100;1,0;2,0;0,0;3,0;column;0,0;True;False;True;1,64899992943;True;0,930000066757
SMS1997w;experiment;2017-04-27-08-31-28;10,0;16,0;-100;1,0;2,0;3,0;0,0;row;0,0;True;True;True;1,31599998474;True;0,763000011444
SMS1997w;experiment;2017-04-27-08-31-28;10,0;17,0;-100;0,0;2,0;3,0;1,0;row;1,0;True;True;True;1,28199982643;True;1,2009999752
SMS1997w;experiment;2017-04-27-08-31-28;10,0;18,0;-100;2,0;3,0;0,0;1,0;column;0,0;True;True;True;1,51600003242;True;0,763000011444
SMS1997w;experiment;2017-04-27-08-31-28;10,0;19,0;-100;0,0;3,0;2,0;1,0;row;1,0;False;True;False;1,51499986649;True;1,02999997139
SMS1997w;experiment;2017-04-27-08-31-28;10,0;20,0;-100;0,0;3,0;1,0;2,0;column;0,0;False;True;False;1,34899997711;True;0,596999883652
SMS1997w;experiment;2017-04-27-08-31-28;10,0;21,0;-100;3,0;0,0;2,0;1,0;column;0,0;False;True;False;1,51600003242;True;0,928999900818
SMS1997w;experiment;2017-04-27-08-31-28;10,0;22,0;-100;2,0;3,0;1,0;0,0;row;0,0;False;True;False;1,71499991417;True;0,565999984741
SMS1997w;experiment;2017-04-27-08-31-28;10,0;23,0;-100;1,0;2,0;3,0;0,0;column;1,0;True;True;False;1,4509999752;False;1,02999997139
SMS1997w;experiment;2017-04-27-08-31-28;10,0;24,0;-100;2,0;1,0;3,0;0,0;column;1,0;True;False;False;1,64800000191;False;1,33099985123
SMS1997w;experiment;2017-04-27-08-31-28;10,0;25,0;-100;1,0;0,0;3,0;2,0;column;0,0;False;True;False;1,48399996758;True;0,529000043869
SMS1997w;experiment;2017-04-27-08-31-28;10,0;26,0;-100;2,0;0,0;1,0;3,0;row;1,0;False;False;False;1,11599993706;True;1,16699981689
SMS1997w;experiment;2017-04-27-08-31-28;10,0;27,0;-100;2,0;0,0;1,0;3,0;column;1,0;True;True;True;1,55100011826;True;1,19499993324
SMS1997w;experiment;2017-04-27-08-31-28;10,0;28,0;-100;2,0;1,0;3,0;0,0;row;1,0;True;True;True;1,45000004768;True;0,591000080109
SMS1997w;experiment;2017-04-27-08-31-28;10,0;29,0;-100;3,0;1,0;0,0;2,0;row;1,0;True;False;True;1,28299999237;True;0,865000009537
SMS1997w;experiment;2017-04-27-08-31-28;10,0;30,0;-100;1,0;0,0;2,0;3,0;row;1,0;False;False;False;1,28299999237;True;1,33899998665
SMS1997w;experiment;2017-04-27-08-31-28;10,0;31,0;-100;3,0;1,0;2,0;0,0;column;0,0;False;True;False;1,58400011063;True;0,936999797821
SMS1997w;experiment;2017-04-27-08-31-28;10,0;32,0;-100;1,0;2,0;0,0;3,0;column;1,0;True;False;True;1,51600003242;True;1,16400003433
SMS1997w;experiment;2017-04-27-08-31-28;10,0;33,0;-100;2,0;1,0;0,0;3,0;row;0,0;False;False;False;1,41700005531;True;0,733999967575
SMS1997w;experiment;2017-04-27-08-31-28;10,0;34,0;-100;3,0;0,0;1,0;2,0;row;0,0;False;True;False;0,848999977112;True;1,13000011444
SMS1997w;experiment;2017-04-27-08-31-28;10,0;35,0;-100;3,0;0,0;1,0;2,0;row;1,0;True;False;True;1,21700000763;True;0,664000034332
SMS1997w;experiment;2017-04-27-08-31-28;10,0;36,0;-100;2,0;1,0;0,0;3,0;row;1,0;True;True;False;1,18400001526;False;1,49099993706
SMS1997w;experiment;2017-04-27-08-31-28;10,0;37,0;-100;3,0;2,0;0,0;1,0;column;0,0;True;True;True;1,15000009537;True;0,557000160217
SMS1997w;experiment;2017-04-27-08-31-28;10,0;38,0;-100;3,0;0,0;1,0;2,0;column;0,0;False;True;False;1,21700000763;True;0,664000034332
SMS1997w;experiment;2017-04-27-08-31-28;10,0;39,0;-100;0,0;3,0;2,0;1,0;column;1,0;True;False;True;0,980999946594;True;0,84099984169
SMS1997w;experiment;2017-04-27-08-31-28;10,0;40,0;-100;0,0;1,0;3,0;2,0;column;0,0;True;True;True;1,11699986458;True;1,42999982834
SMS1997w;experiment;2017-04-27-08-31-28;10,0;41,0;-100;3,0;2,0;1,0;0,0;row;0,0;True;False;True;1,14999985695;True;0,730999946594
SMS1997w;experiment;2017-04-27-08-31-28;10,0;42,0;-100;0,0;1,0;2,0;3,0;column;1,0;False;True;False;0,983999967575;True;0,900000095367
SMS1997w;experiment;2017-04-27-08-31-28;10,0;43,0;-100;3,0;2,0;0,0;1,0;row;0,0;True;False;True;0,980999946594;True;1,48199987411
SMS1997w;experiment;2017-04-27-08-31-28;10,0;44,0;-100;2,0;1,0;0,0;3,0;row;1,0;False;False;False;1,25;True;1,2009999752
SMS1997w;experiment;2017-04-27-08-31-28;10,0;45,0;-100;1,0;0,0;3,0;2,0;column;1,0;False;True;False;1,34899997711;True;0,523999929428
SMS1997w;experiment;2017-04-27-08-31-28;10,0;46,0;-100;3,0;0,0;1,0;2,0;column;0,0;True;True;True;1,57999992371;True;1,46399998665
SMS1997w;experiment;2017-04-27-08-31-28;10,0;47,0;-100;2,0;3,0;0,0;1,0;column;1,0;True;False;True;1,21700000763;True;1,02999997139
SMS1997w;experiment;2017-04-27-08-31-28;10,0;48,0;-100;1,0;0,0;3,0;2,0;row;1,0;False;True;False;1,28400015831;True;1,10599994659
SMS1997w;experiment;2017-04-27-08-31-28;11,0;1,0;100;1,0;0,0;3,0;2,0;column;0,0;False;True;False;0,799000024796;True;1,40799999237
SMS1997w;experiment;2017-04-27-08-31-28;11,0;2,0;100;1,0;2,0;0,0;3,0;row;0,0;True;True;True;1,16700005531;True;1,36599993706
SMS1997w;experiment;2017-04-27-08-31-28;11,0;3,0;100;3,0;2,0;1,0;0,0;column;0,0;True;False;True;1,73300004005;True;1,39700007439
SMS1997w;experiment;2017-04-27-08-31-28;11,0;4,0;100;1,0;2,0;0,0;3,0;row;1,0;False;True;False;1,66599988937;True;0,631999969482
SMS1997w;experiment;2017-04-27-08-31-28;11,0;5,0;100;0,0;1,0;3,0;2,0;row;1,0;False;False;False;1,06700015068;True;0,9359998703
SMS1997w;experiment;2017-04-27-08-31-28;11,0;6,0;100;3,0;2,0;0,0;1,0;row;1,0;False;True;False;1,26399993896;True;0,865999937057
SMS1997w;experiment;2017-04-27-08-31-28;11,0;7,0;100;1,0;2,0;3,0;0,0;column;1,0;True;True;True;1,40000009537;True;1,1289999485
SMS1997w;experiment;2017-04-27-08-31-28;11,0;8,0;100;3,0;0,0;1,0;2,0;row;1,0;False;False;False;1,23400020599;True;0,667999982834
SMS1997w;experiment;2017-04-27-08-31-28;11,0;9,0;100;0,0;2,0;3,0;1,0;column;0,0;False;True;True;1,03299999237;False;0,865999937057
SMS1997w;experiment;2017-04-27-08-31-28;11,0;10,0;100;3,0;2,0;0,0;1,0;column;0,0;True;False;True;1,43400001526;True;0,99599981308
SMS1997w;experiment;2017-04-27-08-31-28;11,0;11,0;100;0,0;2,0;1,0;3,0;column;0,0;True;False;True;0,832999944687;True;0,990999937057
SMS1997w;experiment;2017-04-27-08-31-28;11,0;12,0;100;0,0;2,0;3,0;1,0;row;0,0;False;True;False;1,03299999237;True;1,40400004387
SMS1997w;experiment;2017-04-27-08-31-28;11,0;13,0;100;1,0;3,0;2,0;0,0;column;1,0;False;False;False;0,900000095367;True;1,33400011063
SMS1997w;experiment;2017-04-27-08-31-28;11,0;14,0;100;3,0;1,0;0,0;2,0;column;0,0;False;False;True;0,800000190735;False;0,767000198364
SMS1997w;experiment;2017-04-27-08-31-28;11,0;15,0;100;0,0;3,0;1,0;2,0;row;1,0;False;False;False;1,46700000763;True;0,662999868393
SMS1997w;experiment;2017-04-27-08-31-28;11,0;16,0;100;2,0;1,0;0,0;3,0;column;1,0;False;False;False;1,69999980927;True;0,731000185013
SMS1997w;experiment;2017-04-27-08-31-28;11,0;17,0;100;2,0;3,0;0,0;1,0;row;1,0;False;True;False;1,03399991989;True;1,1970000267
SMS1997w;experiment;2017-04-27-08-31-28;11,0;18,0;100;3,0;1,0;0,0;2,0;column;0,0;True;True;False;0,931999921799;False;1,16300010681
SMS1997w;experiment;2017-04-27-08-31-28;11,0;19,0;100;2,0;0,0;1,0;3,0;column;0,0;False;True;False;0,799000024796;True;1,39899992943
SMS1997w;experiment;2017-04-27-08-31-28;11,0;20,0;100;1,0;3,0;2,0;0,0;row;1,0;True;False;True;1,56599998474;True;1,42999982834
SMS1997w;experiment;2017-04-27-08-31-28;11,0;21,0;100;3,0;2,0;1,0;0,0;row;1,0;False;False;False;1,03299999237;True;0,696000099182
SMS1997w;experiment;2017-04-27-08-31-28;11,0;22,0;100;3,0;1,0;2,0;0,0;row;0,0;True;False;True;1,66700005531;True;1,29999995232
SMS1997w;experiment;2017-04-27-08-31-28;11,0;23,0;100;3,0;2,0;1,0;0,0;row;0,0;False;True;False;1,03299999237;True;1,39700007439
SMS1997w;experiment;2017-04-27-08-31-28;11,0;24,0;100;0,0;3,0;2,0;1,0;column;1,0;True;True;True;1,59999990463;True;0,825999975204
SMS1997w;experiment;2017-04-27-08-31-28;11,0;25,0;100;3,0;0,0;1,0;2,0;row;0,0;True;True;True;1,03400015831;True;1,37399983406
SMS1997w;experiment;2017-04-27-08-31-28;11,0;26,0;100;2,0;0,0;1,0;3,0;column;1,0;True;True;True;1,03200006485;True;1,37199997902
SMS1997w;experiment;2017-04-27-08-31-28;11,0;27,0;100;0,0;2,0;3,0;1,0;column;1,0;False;True;False;1,26699995995;True;1,09800004959
SMS1997w;experiment;2017-04-27-08-31-28;11,0;28,0;100;3,0;1,0;0,0;2,0;row;0,0;True;True;True;1,83100008965;True;1,20000004768
SMS1997w;experiment;2017-04-27-08-31-28;11,0;29,0;100;2,0;1,0;3,0;0,0;column;0,0;True;False;False;1,0;False;1,19799995422
SMS1997w;experiment;2017-04-27-08-31-28;11,0;30,0;100;1,0;0,0;3,0;2,0;column;1,0;False;True;False;1,20000004768;True;0,59299993515
SMS1997w;experiment;2017-04-27-08-31-28;11,0;31,0;100;3,0;2,0;1,0;0,0;column;1,0;True;True;True;1,13300013542;True;1,12400007248
SMS1997w;experiment;2017-04-27-08-31-28;11,0;32,0;100;1,0;0,0;2,0;3,0;column;0,0;False;True;False;1,2990000248;True;1,2650001049
SMS1997w;experiment;2017-04-27-08-31-28;11,0;33,0;100;0,0;2,0;3,0;1,0;row;0,0;True;False;False;1,10000014305;False;0,694999933243
SMS1997w;experiment;2017-04-27-08-31-28;11,0;34,0;100;3,0;2,0;0,0;1,0;row;0,0;False;True;False;1,43299984932;True;0,571000099182
SMS1997w;experiment;2017-04-27-08-31-28;11,0;35,0;100;2,0;1,0;0,0;3,0;column;0,0;True;True;True;1,43300008774;True;1,29600000381
SMS1997w;experiment;2017-04-27-08-31-28;11,0;36,0;100;1,0;3,0;2,0;0,0;row;0,0;False;True;False;1,36500000954;True;1,1369998455
SMS1997w;experiment;2017-04-27-08-31-28;11,0;37,0;100;2,0;0,0;3,0;1,0;row;1,0;True;False;False;1,53299999237;False;0,857000112534
SMS1997w;experiment;2017-04-27-08-31-28;11,0;38,0;100;3,0;2,0;0,0;1,0;column;0,0;False;False;True;1,2990000248;False;1,49799990654
SMS1997w;experiment;2017-04-27-08-31-28;11,0;39,0;100;3,0;1,0;0,0;2,0;column;1,0;True;False;True;1,26600003242;True;1,47399997711
SMS1997w;experiment;2017-04-27-08-31-28;11,0;40,0;100;3,0;1,0;2,0;0,0;column;1,0;False;False;True;0,866999864578;False;1,09799981117
SMS1997w;experiment;2017-04-27-08-31-28;11,0;41,0;100;0,0;2,0;3,0;1,0;column;1,0;True;False;True;1,19999980927;True;0,662999868393
SMS1997w;experiment;2017-04-27-08-31-28;11,0;42,0;100;1,0;0,0;3,0;2,0;row;1,0;False;False;False;1,26600003242;True;1,40000009537
SMS1997w;experiment;2017-04-27-08-31-28;11,0;43,0;100;2,0;3,0;1,0;0,0;column;1,0;False;False;False;1,46700000763;True;1,45700001717
SMS1997w;experiment;2017-04-27-08-31-28;11,0;44,0;100;1,0;2,0;0,0;3,0;column;1,0;True;True;True;0,932999849319;True;1,40400004387
SMS1997w;experiment;2017-04-27-08-31-28;11,0;45,0;100;1,0;2,0;3,0;0,0;row;1,0;True;False;False;1,16500020027;False;1,06799983978
SMS1997w;experiment;2017-04-27-08-31-28;11,0;46,0;100;0,0;1,0;3,0;2,0;column;0,0;True;False;True;1,43400001526;True;1,23300004005
SMS1997w;experiment;2017-04-27-08-31-28;11,0;47,0;100;2,0;3,0;1,0;0,0;row;0,0;False;True;True;1,16700005531;False;1,4240000248
SMS1997w;experiment;2017-04-27-08-31-28;11,0;48,0;100;1,0;2,0;0,0;3,0;column;0,0;True;True;True;1,03299999237;True;0,528000116348
SMS1997w;experiment;2017-04-27-08-31-28;12,0;1,0;1000;1,0;2,0;0,0;3,0;row;1,0;False;True;False;1,0649998188;True;1,01699995995
SMS1997w;experiment;2017-04-27-08-31-28;12,0;2,0;1000;3,0;1,0;0,0;2,0;column;0,0;False;True;False;1,23300004005;True;0,796999931335
SMS1997w;experiment;2017-04-27-08-31-28;12,0;3,0;1000;2,0;0,0;3,0;1,0;row;1,0;True;True;False;1,43299984932;False;1,1740000248
SMS1997w;experiment;2017-04-27-08-31-28;12,0;4,0;1000;2,0;1,0;0,0;3,0;column;0,0;False;False;False;0,899999856949;True;0,587000131607
SMS1997w;experiment;2017-04-27-08-31-28;12,0;5,0;1000;2,0;0,0;1,0;3,0;column;1,0;False;False;False;2,23300004005;True;0,59700012207
SMS1997w;experiment;2017-04-27-08-31-28;12,0;6,0;1000;3,0;2,0;1,0;0,0;row;1,0;True;True;True;1,867000103;True;0,569999933243
SMS1997w;experiment;2017-04-27-08-31-28;12,0;7,0;1000;3,0;1,0;0,0;2,0;column;1,0;False;False;True;2,0;False;1,29499983788
SMS1997w;experiment;2017-04-27-08-31-28;12,0;8,0;1000;1,0;0,0;2,0;3,0;column;0,0;True;False;True;0,967000007629;True;1,26399993896
SMS1997w;experiment;2017-04-27-08-31-28;12,0;9,0;1000;3,0;2,0;0,0;1,0;column;0,0;True;False;True;0,766999959946;True;0,799000024796
SMS1997w;experiment;2017-04-27-08-31-28;12,0;10,0;1000;1,0;3,0;0,0;2,0;row;1,0;True;True;False;1,93300008774;False;0,841000080109
SMS1997w;experiment;2017-04-27-08-31-28;12,0;11,0;1000;0,0;2,0;3,0;1,0;column;1,0;False;False;True;1,29999995232;False;0,962999820709
SMS1997w;experiment;2017-04-27-08-31-28;12,0;12,0;1000;0,0;3,0;1,0;2,0;row;0,0;False;True;False;1,7990000248;True;1,52999997139
SMS1997w;experiment;2017-04-27-08-31-28;12,0;13,0;1000;0,0;2,0;1,0;3,0;column;0,0;True;False;True;0,767000198364;True;0,709000110626
SMS1997w;experiment;2017-04-27-08-31-28;12,0;14,0;1000;0,0;3,0;1,0;2,0;column;0,0;False;False;False;0,834000110626;True;0,898000001907
SMS1997w;experiment;2017-04-27-08-31-28;12,0;15,0;1000;2,0;3,0;1,0;0,0;column;0,0;True;False;True;0,667999982834;True;0,795000076294
SMS1997w;experiment;2017-04-27-08-31-28;12,0;16,0;1000;1,0;0,0;2,0;3,0;column;0,0;False;True;False;0,799999952316;True;0,664000034332
SMS1997w;experiment;2017-04-27-08-31-28;12,0;17,0;1000;1,0;3,0;0,0;2,0;row;0,0;True;False;True;2,66599988937;True;1,09899997711
SMS1997w;experiment;2017-04-27-08-31-28;12,0;18,0;1000;0,0;1,0;2,0;3,0;column;0,0;True;False;True;0,901000022888;True;1,46099996567
SMS1997w;experiment;2017-04-27-08-31-28;12,0;19,0;1000;3,0;0,0;2,0;1,0;row;1,0;False;True;False;1,23399996758;True;1,39499998093
SMS1997w;experiment;2017-04-27-08-31-28;12,0;20,0;1000;3,0;1,0;2,0;0,0;column;1,0;True;False;True;1,632999897;True;0,796000003815
SMS1997w;experiment;2017-04-27-08-31-28;12,0;21,0;1000;0,0;1,0;3,0;2,0;column;1,0;False;False;False;0,767999887466;True;0,858000040054
SMS1997w;experiment;2017-04-27-08-31-28;12,0;22,0;1000;1,0;2,0;3,0;0,0;row;0,0;False;False;False;1,76600003242;True;1,03500008583
SMS1997w;experiment;2017-04-27-08-31-28;12,0;23,0;1000;0,0;3,0;1,0;2,0;column;1,0;True;False;False;1,10100007057;False;1,16199994087
SMS1997w;experiment;2017-04-27-08-31-28;12,0;24,0;1000;0,0;1,0;3,0;2,0;row;0,0;True;True;True;1,39899992943;True;1,29699993134
SMS1997w;experiment;2017-04-27-08-31-28;12,0;25,0;1000;2,0;3,0;0,0;1,0;row;1,0;False;True;False;1,26699995995;True;0,895999908447
SMS1997w;experiment;2017-04-27-08-31-28;12,0;26,0;1000;0,0;2,0;3,0;1,0;column;0,0;True;False;True;1,867000103;True;0,958999872208
SMS1997w;experiment;2017-04-27-08-31-28;12,0;27,0;1000;1,0;2,0;3,0;0,0;row;0,0;True;False;False;1,0;False;0,805999994278
SMS1997w;experiment;2017-04-27-08-31-28;12,0;28,0;1000;1,0;2,0;0,0;3,0;column;1,0;False;True;False;1,66699981689;True;0,867000102997
SMS1997w;experiment;2017-04-27-08-31-28;12,0;29,0;1000;0,0;1,0;2,0;3,0;column;1,0;False;False;False;1,20000004768;True;1,32899999619
SMS1997w;experiment;2017-04-27-08-31-28;12,0;30,0;1000;2,0;3,0;0,0;1,0;row;0,0;True;True;True;1,03400015831;True;0,998999834061
SMS1997w;experiment;2017-04-27-08-31-28;12,0;31,0;1000;2,0;0,0;3,0;1,0;column;1,0;False;False;True;1,26699995995;False;1,39700007439
SMS1997w;experiment;2017-04-27-08-31-28;12,0;32,0;1000;0,0;1,0;3,0;2,0;row;1,0;False;True;False;1,43300008774;True;1,42900013924
SMS1997w;experiment;2017-04-27-08-31-28;12,0;33,0;1000;1,0;3,0;2,0;0,0;column;0,0;True;True;True;1,26699995995;True;1,09100008011
SMS1997w;experiment;2017-04-27-08-31-28;12,0;34,0;1000;0,0;1,0;2,0;3,0;column;1,0;True;False;False;1,23300004005;False;1,12300014496
SMS1997w;experiment;2017-04-27-08-31-28;12,0;35,0;1000;3,0;0,0;1,0;2,0;row;1,0;True;True;False;1,13199996948;False;1,02999997139
SMS1997w;experiment;2017-04-27-08-31-28;12,0;36,0;1000;3,0;2,0;0,0;1,0;row;0,0;False;True;True;1,06699991226;False;1,20300006866
SMS1997w;experiment;2017-04-27-08-31-28;12,0;37,0;1000;1,0;3,0;0,0;2,0;column;0,0;False;False;True;1,29800009727;False;0,997000217438
SMS1997w;experiment;2017-04-27-08-31-28;12,0;38,0;1000;2,0;1,0;0,0;3,0;row;0,0;True;False;False;1,56699991226;False;0,830999851227
SMS1997w;experiment;2017-04-27-08-31-28;12,0;39,0;1000;1,0;3,0;2,0;0,0;row;0,0;True;False;False;1,30000019073;False;0,793999910355
SMS1997w;experiment;2017-04-27-08-31-28;12,0;40,0;1000;0,0;2,0;3,0;1,0;row;0,0;False;True;True;1,27399992943;False;0,867000102997
SMS1997w;experiment;2017-04-27-08-31-28;12,0;41,0;1000;3,0;2,0;1,0;0,0;column;0,0;False;False;False;0,865000009537;True;1,17299985886
SMS1997w;experiment;2017-04-27-08-31-28;12,0;42,0;1000;0,0;3,0;2,0;1,0;column;0,0;False;False;False;1,26699995995;True;1,25900006294
SMS1997w;experiment;2017-04-27-08-31-28;12,0;43,0;1000;2,0;3,0;0,0;1,0;row;0,0;False;True;True;1,5;False;0,868999958038
SMS1997w;experiment;2017-04-27-08-31-28;12,0;44,0;1000;2,0;3,0;1,0;0,0;column;0,0;False;False;False;1,26699995995;True;0,828999996185
SMS1997w;experiment;2017-04-27-08-31-28;12,0;45,0;1000;3,0;0,0;1,0;2,0;row;1,0;False;False;False;1,33200001717;True;0,791000127792
SMS1997w;experiment;2017-04-27-08-31-28;12,0;46,0;1000;0,0;2,0;1,0;3,0;column;1,0;False;False;True;1,13300013542;False;0,863000154495
SMS1997w;experiment;2017-04-27-08-31-28;12,0;47,0;1000;0,0;2,0;3,0;1,0;row;0,0;True;False;False;1,49900007248;False;0,663000106812
SMS1997w;experiment;2017-04-27-08-31-28;12,0;48,0;1000;2,0;1,0;0,0;3,0;row;1,0;True;True;True;1,40000009537;True;1,52600002289
