Observer;Condition;SessionID;Block;Trial;COA;Color0;Color1;Color2;Color3;Target;Which;Match;FlipComplimentary;Response;RT;Correct;OnsetDelay
SRA1971w;game;2017-03-24-09-08-10;1,0;1,0;-100;1,0;0,0;3,0;2,0;row;1,0;False;True;False;6,78500008583;True;1,47000002861
SRA1971w;game;2017-03-24-09-08-10;1,0;2,0;-100;2,0;0,0;3,0;1,0;column;1,0;False;False;False;1,78399991989;True;0,5640001297
SRA1971w;game;2017-03-24-09-08-10;1,0;3,0;-100;2,0;0,0;1,0;3,0;column;0,0;True;False;True;1,34799981117;True;0,958999872208
SRA1971w;game;2017-03-24-09-08-10;1,0;4,0;-100;0,0;3,0;2,0;1,0;column;0,0;False;False;False;2,81700015068;True;1,49499988556
SRA1971w;game;2017-03-24-09-08-10;1,0;5,0;-100;1,0;2,0;3,0;0,0;column;1,0;False;True;True;2,25;False;1,03199982643
SRA1971w;game;2017-03-24-09-08-10;1,0;6,0;-100;2,0;3,0;1,0;0,0;column;0,0;False;True;False;2,21700000763;True;0,697999954224
SRA1971w;game;2017-03-24-09-08-10;1,0;7,0;-100;0,0;2,0;3,0;1,0;column;1,0;True;True;True;1,88199996948;True;1,16100001335
SRA1971w;game;2017-03-24-09-08-10;1,0;8,0;-100;1,0;2,0;0,0;3,0;row;0,0;False;True;False;3,11699986458;True;1,12800002098
SRA1971w;game;2017-03-24-09-08-10;1,0;9,0;-100;0,0;3,0;1,0;2,0;column;0,0;True;False;False;2,58200001717;False;0,694999933243
SRA1971w;game;2017-03-24-09-08-10;1,0;10,0;-100;0,0;1,0;3,0;2,0;row;0,0;True;True;True;2,65000009537;True;0,569000005722
SRA1971w;game;2017-03-24-09-08-10;1,0;11,0;-100;1,0;0,0;3,0;2,0;row;0,0;True;False;True;2,65000009537;True;0,699000120163
SRA1971w;game;2017-03-24-09-08-10;1,0;12,0;-100;1,0;3,0;0,0;2,0;column;1,0;True;False;True;1,18300008774;True;1,32500004768
SRA1971w;game;2017-03-24-09-08-10;1,0;13,0;-100;3,0;0,0;1,0;2,0;row;1,0;True;False;True;1,34999990463;True;1,29600000381
SRA1971w;game;2017-03-24-09-08-10;1,0;14,0;-100;0,0;1,0;2,0;3,0;row;0,0;True;True;True;2,08400011063;True;1,29499983788
SRA1971w;game;2017-03-24-09-08-10;1,0;15,0;-100;3,0;0,0;2,0;1,0;row;1,0;True;False;True;1,14999985695;True;1,33899998665
SRA1971w;game;2017-03-24-09-08-10;1,0;16,0;-100;0,0;3,0;2,0;1,0;row;0,0;True;True;True;1,5490000248;True;0,798000097275
SRA1971w;game;2017-03-24-09-08-10;1,0;17,0;-100;3,0;0,0;2,0;1,0;column;0,0;False;False;False;1,38300013542;True;1,40199995041
SRA1971w;game;2017-03-24-09-08-10;1,0;18,0;-100;3,0;2,0;1,0;0,0;column;1,0;False;True;True;1,98300004005;False;0,799999952316
SRA1971w;game;2017-03-24-09-08-10;1,0;19,0;-100;3,0;1,0;0,0;2,0;column;0,0;False;True;False;2,71499991417;True;0,538000106812
SRA1971w;game;2017-03-24-09-08-10;1,0;20,0;-100;1,0;3,0;2,0;0,0;column;1,0;True;True;True;1,04999995232;True;1,10100007057
SRA1971w;game;2017-03-24-09-08-10;1,0;21,0;-100;2,0;0,0;1,0;3,0;row;1,0;False;True;False;4,04400014877;True;1,29200005531
SRA1971w;game;2017-03-24-09-08-10;1,0;22,0;-100;0,0;2,0;1,0;3,0;row;0,0;False;False;False;2,58100008965;True;1,36899995804
SRA1971w;game;2017-03-24-09-08-10;1,0;23,0;-100;1,0;3,0;0,0;2,0;row;1,0;False;False;False;2,15000009537;True;0,601000070572
SRA1971w;game;2017-03-24-09-08-10;1,0;24,0;-100;3,0;2,0;0,0;1,0;row;0,0;False;False;False;1,98199987411;True;0,705000162125
SRA1971w;game;2017-03-24-09-08-10;1,0;25,0;-100;1,0;3,0;0,0;2,0;column;1,0;False;False;False;2,34999990463;True;0,670000076294
SRA1971w;game;2017-03-24-09-08-10;1,0;26,0;-100;3,0;1,0;0,0;2,0;column;1,0;False;False;False;2,41700005531;True;1,22299981117
SRA1971w;game;2017-03-24-09-08-10;1,0;27,0;-100;0,0;1,0;2,0;3,0;column;1,0;False;True;False;1,18300008774;True;1,10299992561
SRA1971w;game;2017-03-24-09-08-10;1,0;28,0;-100;0,0;1,0;3,0;2,0;row;0,0;False;True;False;1,45000004768;True;1,35800004005
SRA1971w;game;2017-03-24-09-08-10;1,0;29,0;-100;3,0;0,0;2,0;1,0;row;0,0;False;False;False;1,78399991989;True;1,29800009727
SRA1971w;game;2017-03-24-09-08-10;1,0;30,0;-100;2,0;1,0;3,0;0,0;column;1,0;True;True;False;1,38300013542;False;0,901000022888
SRA1971w;game;2017-03-24-09-08-10;1,0;31,0;-100;0,0;2,0;1,0;3,0;row;0,0;True;False;True;1,88400006294;True;1,43299984932
SRA1971w;game;2017-03-24-09-08-10;1,0;32,0;-100;2,0;1,0;3,0;0,0;row;1,0;False;True;False;2,81700015068;True;0,990999937057
SRA1971w;game;2017-03-24-09-08-10;1,0;33,0;-100;3,0;1,0;0,0;2,0;column;1,0;True;False;True;2,88399982452;True;0,895999908447
SRA1971w;game;2017-03-24-09-08-10;1,0;34,0;-100;2,0;0,0;3,0;1,0;row;0,0;True;False;False;1,91699981689;False;1,19400000572
SRA1971w;game;2017-03-24-09-08-10;1,0;35,0;-100;3,0;2,0;0,0;1,0;column;1,0;True;False;True;1,08100008965;True;1,4240000248
SRA1971w;game;2017-03-24-09-08-10;1,0;36,0;-100;2,0;1,0;3,0;0,0;column;0,0;False;False;False;2,28299999237;True;0,929999828339
SRA1971w;game;2017-03-24-09-08-10;1,0;37,0;-100;2,0;1,0;3,0;0,0;column;1,0;False;False;False;2,08299994469;True;0,99799990654
SRA1971w;game;2017-03-24-09-08-10;1,0;38,0;-100;0,0;3,0;1,0;2,0;row;1,0;False;True;False;1,85100007057;True;0,800999879837
SRA1971w;game;2017-03-24-09-08-10;1,0;39,0;-100;0,0;2,0;1,0;3,0;row;1,0;False;True;False;1,68400001526;True;1,25099992752
SRA1971w;game;2017-03-24-09-08-10;1,0;40,0;-100;2,0;1,0;0,0;3,0;column;0,0;False;False;False;4,08299994469;True;1,44000005722
SRA1971w;game;2017-03-24-09-08-10;1,0;41,0;-100;3,0;2,0;1,0;0,0;column;0,0;False;False;False;1,81599998474;True;1,36400008202
SRA1971w;game;2017-03-24-09-08-10;1,0;42,0;-100;3,0;1,0;0,0;2,0;row;1,0;True;False;True;1,98399996758;True;1,26399993896
SRA1971w;game;2017-03-24-09-08-10;1,0;43,0;-100;0,0;1,0;3,0;2,0;column;0,0;False;True;False;2,54699993134;True;1,19900012016
SRA1971w;game;2017-03-24-09-08-10;1,0;44,0;-100;1,0;0,0;2,0;3,0;row;1,0;False;False;False;2,14899992943;True;1,23599982262
SRA1971w;game;2017-03-24-09-08-10;1,0;45,0;-100;0,0;1,0;3,0;2,0;column;0,0;True;True;True;2,54799985886;True;1,34000015259
SRA1971w;game;2017-03-24-09-08-10;1,0;46,0;-100;2,0;0,0;1,0;3,0;row;1,0;True;False;True;2,28200006485;True;0,767999887466
SRA1971w;game;2017-03-24-09-08-10;1,0;47,0;-100;2,0;3,0;0,0;1,0;column;0,0;True;False;False;2,65099978447;False;1,26200008392
SRA1971w;game;2017-03-24-09-08-10;1,0;48,0;-100;2,0;3,0;0,0;1,0;column;1,0;False;True;False;3,41499996185;True;0,697000026703
SRA1971w;game;2017-03-24-09-08-10;2,0;1,0;100;2,0;1,0;3,0;0,0;row;0,0;True;True;True;1,53299999237;True;1,4240000248
SRA1971w;game;2017-03-24-09-08-10;2,0;2,0;100;0,0;2,0;3,0;1,0;column;1,0;False;False;False;2,13499999046;True;0,830000162125
SRA1971w;game;2017-03-24-09-08-10;2,0;3,0;100;0,0;3,0;2,0;1,0;row;0,0;True;False;True;1,16700005531;True;1,43400001526
SRA1971w;game;2017-03-24-09-08-10;2,0;4,0;100;1,0;2,0;3,0;0,0;column;1,0;False;True;False;1,79999995232;True;0,697999954224
SRA1971w;game;2017-03-24-09-08-10;2,0;5,0;100;1,0;2,0;3,0;0,0;row;1,0;False;True;False;1,93400001526;True;0,931999921799
SRA1971w;game;2017-03-24-09-08-10;2,0;6,0;100;2,0;0,0;1,0;3,0;row;0,0;False;True;False;1,96799993515;True;1,32999992371
SRA1971w;game;2017-03-24-09-08-10;2,0;7,0;100;0,0;1,0;3,0;2,0;row;1,0;True;False;True;1,20000004768;True;1,33499979973
SRA1971w;game;2017-03-24-09-08-10;2,0;8,0;100;1,0;2,0;0,0;3,0;row;0,0;False;False;False;1,63399982452;True;0,894999980927
SRA1971w;game;2017-03-24-09-08-10;2,0;9,0;100;3,0;0,0;1,0;2,0;column;1,0;False;True;False;1,79999995232;True;1,03800010681
SRA1971w;game;2017-03-24-09-08-10;2,0;10,0;100;0,0;2,0;1,0;3,0;row;0,0;False;True;False;3,03399991989;True;0,597999811172
SRA1971w;game;2017-03-24-09-08-10;2,0;11,0;100;2,0;3,0;1,0;0,0;column;0,0;True;True;True;3,93300008774;True;1,45799994469
SRA1971w;game;2017-03-24-09-08-10;2,0;12,0;100;2,0;1,0;3,0;0,0;column;1,0;True;False;True;2,06599998474;True;0,569999933243
SRA1971w;game;2017-03-24-09-08-10;2,0;13,0;100;0,0;2,0;1,0;3,0;column;1,0;True;False;True;1,367000103;True;0,924000024796
SRA1971w;game;2017-03-24-09-08-10;2,0;14,0;100;3,0;1,0;2,0;0,0;column;0,0;True;True;False;2,26600003242;False;1,42600011826
SRA1971w;game;2017-03-24-09-08-10;2,0;15,0;100;1,0;0,0;2,0;3,0;column;1,0;False;True;False;2,0;True;0,99799990654
SRA1971w;game;2017-03-24-09-08-10;2,0;16,0;100;2,0;3,0;0,0;1,0;column;0,0;True;False;True;3,53299999237;True;0,959999799728
SRA1971w;game;2017-03-24-09-08-10;2,0;17,0;100;0,0;1,0;3,0;2,0;row;0,0;False;False;False;1,86600017548;True;1,22799992561
SRA1971w;game;2017-03-24-09-08-10;2,0;18,0;100;3,0;0,0;1,0;2,0;column;1,0;True;True;False;2,79999995232;False;0,700999975204
SRA1971w;game;2017-03-24-09-08-10;2,0;19,0;100;3,0;0,0;1,0;2,0;row;1,0;False;False;False;1,83399987221;True;1,36400008202
SRA1971w;game;2017-03-24-09-08-10;2,0;20,0;100;2,0;3,0;0,0;1,0;row;0,0;False;True;False;3,09999990463;True;1,35899996758
SRA1971w;game;2017-03-24-09-08-10;2,0;21,0;100;3,0;1,0;0,0;2,0;column;0,0;False;False;False;2,43099999428;True;0,892000198364
SRA1971w;game;2017-03-24-09-08-10;2,0;22,0;100;3,0;0,0;2,0;1,0;column;1,0;True;False;True;2,2009999752;True;1,03200006485
SRA1971w;game;2017-03-24-09-08-10;2,0;23,0;100;3,0;0,0;1,0;2,0;row;0,0;False;False;False;4,19799995422;True;1,0560002327
SRA1971w;game;2017-03-24-09-08-10;2,0;24,0;100;2,0;3,0;0,0;1,0;row;1,0;True;True;True;1,43400001526;True;0,730000019073
SRA1971w;game;2017-03-24-09-08-10;2,0;25,0;100;2,0;1,0;0,0;3,0;column;1,0;True;False;True;2,40000009537;True;0,966000080109
SRA1971w;game;2017-03-24-09-08-10;2,0;26,0;100;3,0;2,0;0,0;1,0;column;0,0;True;True;True;1,56600022316;True;1,06599998474
SRA1971w;game;2017-03-24-09-08-10;2,0;27,0;100;2,0;0,0;1,0;3,0;column;0,0;True;False;True;2,40000009537;True;0,995000123978
SRA1971w;game;2017-03-24-09-08-10;2,0;28,0;100;0,0;1,0;3,0;2,0;column;1,0;False;True;False;1,93400001526;True;0,762000083923
SRA1971w;game;2017-03-24-09-08-10;2,0;29,0;100;2,0;0,0;1,0;3,0;column;0,0;False;True;False;1,83299994469;True;1,33200001717
SRA1971w;game;2017-03-24-09-08-10;2,0;30,0;100;1,0;2,0;0,0;3,0;row;1,0;True;True;True;1,16699981689;True;0,992000102997
SRA1971w;game;2017-03-24-09-08-10;2,0;31,0;100;2,0;1,0;3,0;0,0;column;0,0;False;False;False;2,13300013542;True;0,694000005722
SRA1971w;game;2017-03-24-09-08-10;2,0;32,0;100;0,0;1,0;2,0;3,0;column;0,0;True;True;True;3,53299999237;True;0,761000156403
SRA1971w;game;2017-03-24-09-08-10;2,0;33,0;100;0,0;1,0;3,0;2,0;row;1,0;False;False;True;1,60000014305;False;0,601999998093
SRA1971w;game;2017-03-24-09-08-10;2,0;34,0;100;0,0;1,0;3,0;2,0;column;0,0;True;False;True;1,19899988174;True;0,800000190735
SRA1971w;game;2017-03-24-09-08-10;2,0;35,0;100;1,0;2,0;0,0;3,0;column;1,0;False;True;False;2,06599998474;True;1,2990000248
SRA1971w;game;2017-03-24-09-08-10;2,0;36,0;100;2,0;3,0;1,0;0,0;column;0,0;False;False;False;2,73300004005;True;0,927000045776
SRA1971w;game;2017-03-24-09-08-10;2,0;37,0;100;0,0;3,0;1,0;2,0;row;1,0;True;False;True;2,46399998665;True;1,29200005531
SRA1971w;game;2017-03-24-09-08-10;2,0;38,0;100;1,0;3,0;0,0;2,0;row;1,0;True;True;True;1,46700000763;True;0,894000053406
SRA1971w;game;2017-03-24-09-08-10;2,0;39,0;100;0,0;3,0;2,0;1,0;column;1,0;False;True;False;2,70000004768;True;1,10299992561
SRA1971w;game;2017-03-24-09-08-10;2,0;40,0;100;1,0;3,0;2,0;0,0;row;0,0;True;False;True;1,09999990463;True;1,22800016403
SRA1971w;game;2017-03-24-09-08-10;2,0;41,0;100;2,0;0,0;3,0;1,0;row;1,0;True;False;True;1,40000009537;True;0,835000038147
SRA1971w;game;2017-03-24-09-08-10;2,0;42,0;100;3,0;2,0;0,0;1,0;column;0,0;False;False;False;1,43300008774;True;0,837000131607
SRA1971w;game;2017-03-24-09-08-10;2,0;43,0;100;0,0;2,0;1,0;3,0;column;1,0;False;False;False;1,96700000763;True;1,1289999485
SRA1971w;game;2017-03-24-09-08-10;2,0;44,0;100;1,0;2,0;3,0;0,0;row;0,0;True;True;True;2,73399996758;True;0,788000106812
SRA1971w;game;2017-03-24-09-08-10;2,0;45,0;100;1,0;2,0;0,0;3,0;column;0,0;False;True;False;1,632999897;True;1,19000005722
SRA1971w;game;2017-03-24-09-08-10;2,0;46,0;100;1,0;0,0;2,0;3,0;row;0,0;False;True;False;2,43299984932;True;1,33899998665
SRA1971w;game;2017-03-24-09-08-10;2,0;47,0;100;1,0;0,0;3,0;2,0;column;0,0;False;True;False;2,59999990463;True;0,768000125885
SRA1971w;game;2017-03-24-09-08-10;2,0;48,0;100;0,0;2,0;1,0;3,0;column;0,0;False;True;False;3,26699995995;True;1,27399992943
SRA1971w;game;2017-03-24-09-08-10;3,0;1,0;1000;2,0;0,0;1,0;3,0;row;0,0;True;False;False;2,49799990654;False;1,41700005531
SRA1971w;game;2017-03-24-09-08-10;3,0;2,0;1000;1,0;0,0;3,0;2,0;column;0,0;False;False;False;3,09799981117;True;1,22799992561
SRA1971w;game;2017-03-24-09-08-10;3,0;3,0;1000;3,0;2,0;0,0;1,0;column;0,0;False;True;False;1,83299994469;True;0,694000005722
SRA1971w;game;2017-03-24-09-08-10;3,0;4,0;1000;0,0;3,0;2,0;1,0;row;0,0;True;False;True;0,967000007629;True;0,791999816895
SRA1971w;game;2017-03-24-09-08-10;3,0;5,0;1000;3,0;1,0;2,0;0,0;column;0,0;True;True;True;1,93300008774;True;1,32800006866
SRA1971w;game;2017-03-24-09-08-10;3,0;6,0;1000;0,0;2,0;3,0;1,0;row;0,0;True;True;True;1,29999995232;True;0,536000013351
SRA1971w;game;2017-03-24-09-08-10;3,0;7,0;1000;0,0;3,0;2,0;1,0;column;1,0;False;True;False;2,29999995232;True;1,06500005722
SRA1971w;game;2017-03-24-09-08-10;3,0;8,0;1000;0,0;2,0;1,0;3,0;column;1,0;True;True;True;1,29999995232;True;0,862999916077
SRA1971w;game;2017-03-24-09-08-10;3,0;9,0;1000;0,0;2,0;1,0;3,0;column;0,0;False;False;True;2,5;False;0,966000080109
SRA1971w;game;2017-03-24-09-08-10;3,0;10,0;1000;1,0;3,0;2,0;0,0;column;0,0;False;True;False;2,03299999237;True;1,22900009155
SRA1971w;game;2017-03-24-09-08-10;3,0;11,0;1000;1,0;2,0;0,0;3,0;row;0,0;True;False;True;2,79999995232;True;0,695999860764
SRA1971w;game;2017-03-24-09-08-10;3,0;12,0;1000;3,0;2,0;0,0;1,0;row;1,0;True;False;True;2,20000004768;True;0,772000074387
SRA1971w;game;2017-03-24-09-08-10;3,0;13,0;1000;0,0;3,0;2,0;1,0;column;0,0;True;True;True;1,66699981689;True;0,726000070572
SRA1971w;game;2017-03-24-09-08-10;3,0;14,0;1000;0,0;1,0;3,0;2,0;column;1,0;False;False;False;2,13400006294;True;1,4279999733
SRA1971w;game;2017-03-24-09-08-10;3,0;15,0;1000;2,0;3,0;1,0;0,0;row;1,0;True;True;True;1,29999995232;True;1,17100000381
SRA1971w;game;2017-03-24-09-08-10;3,0;16,0;1000;0,0;1,0;2,0;3,0;row;1,0;False;False;False;2,30000019073;True;0,699000120163
SRA1971w;game;2017-03-24-09-08-10;3,0;17,0;1000;3,0;0,0;1,0;2,0;column;0,0;False;True;False;2,43299984932;True;0,799000024796
SRA1971w;game;2017-03-24-09-08-10;3,0;18,0;1000;2,0;0,0;1,0;3,0;row;1,0;True;False;True;2,06700015068;True;1,42900013924
SRA1971w;game;2017-03-24-09-08-10;3,0;19,0;1000;1,0;0,0;3,0;2,0;row;0,0;True;False;True;1,10000014305;True;1,36899995804
SRA1971w;game;2017-03-24-09-08-10;3,0;20,0;1000;0,0;3,0;2,0;1,0;column;0,0;False;True;False;1,93299984932;True;0,896000146866
SRA1971w;game;2017-03-24-09-08-10;3,0;21,0;1000;1,0;2,0;3,0;0,0;column;1,0;True;True;True;2,26699995995;True;1,02499985695
SRA1971w;game;2017-03-24-09-08-10;3,0;22,0;1000;0,0;3,0;1,0;2,0;column;0,0;False;True;False;2,59800004959;True;1,2990000248
SRA1971w;game;2017-03-24-09-08-10;3,0;23,0;1000;0,0;2,0;3,0;1,0;column;1,0;True;False;True;2,03299999237;True;1,09500002861
SRA1971w;game;2017-03-24-09-08-10;3,0;24,0;1000;2,0;3,0;0,0;1,0;column;1,0;False;True;False;3,13499999046;True;0,759000062943
SRA1971w;game;2017-03-24-09-08-10;3,0;25,0;1000;2,0;3,0;0,0;1,0;row;1,0;True;False;True;1,66599988937;True;0,730000019073
SRA1971w;game;2017-03-24-09-08-10;3,0;26,0;1000;1,0;0,0;2,0;3,0;column;1,0;False;True;False;3,09999990463;True;0,868000030518
SRA1971w;game;2017-03-24-09-08-10;3,0;27,0;1000;3,0;0,0;2,0;1,0;row;1,0;True;False;True;2,132999897;True;1,45700001717
SRA1971w;game;2017-03-24-09-08-10;3,0;28,0;1000;0,0;3,0;2,0;1,0;row;0,0;False;False;False;2,76600003242;True;1,00300002098
SRA1971w;game;2017-03-24-09-08-10;3,0;29,0;1000;0,0;1,0;3,0;2,0;row;1,0;True;True;True;1,89899992943;True;1,06699991226
SRA1971w;game;2017-03-24-09-08-10;3,0;30,0;1000;2,0;0,0;1,0;3,0;column;1,0;False;True;False;2,86599993706;True;0,796999931335
SRA1971w;game;2017-03-24-09-08-10;3,0;31,0;1000;3,0;0,0;1,0;2,0;row;1,0;True;False;True;2,0;True;1,22499990463
SRA1971w;game;2017-03-24-09-08-10;3,0;32,0;1000;3,0;0,0;2,0;1,0;column;0,0;False;False;False;2,59999990463;True;1,03500008583
SRA1971w;game;2017-03-24-09-08-10;3,0;33,0;1000;1,0;0,0;2,0;3,0;row;1,0;True;False;True;2,13199996948;True;0,930999994278
SRA1971w;game;2017-03-24-09-08-10;3,0;34,0;1000;0,0;2,0;1,0;3,0;row;1,0;True;True;True;1,632999897;True;0,772000074387
SRA1971w;game;2017-03-24-09-08-10;3,0;35,0;1000;1,0;0,0;2,0;3,0;column;0,0;False;True;False;2,09999990463;True;0,723999977112
SRA1971w;game;2017-03-24-09-08-10;3,0;36,0;1000;0,0;2,0;3,0;1,0;row;1,0;True;True;True;2,39999985695;True;1,13499999046
SRA1971w;game;2017-03-24-09-08-10;3,0;37,0;1000;3,0;1,0;2,0;0,0;row;0,0;True;True;False;3,23300004005;False;1,492000103
SRA1971w;game;2017-03-24-09-08-10;3,0;38,0;1000;3,0;0,0;2,0;1,0;column;1,0;False;False;False;2,76700019836;True;1,29500007629
SRA1971w;game;2017-03-24-09-08-10;3,0;39,0;1000;2,0;0,0;3,0;1,0;column;0,0;False;False;False;1,93299984932;True;0,962000131607
SRA1971w;game;2017-03-24-09-08-10;3,0;40,0;1000;3,0;1,0;2,0;0,0;row;1,0;False;False;False;3,33399987221;True;0,799999952316
SRA1971w;game;2017-03-24-09-08-10;3,0;41,0;1000;2,0;3,0;0,0;1,0;row;0,0;False;False;False;3,99799990654;True;1,05900001526
SRA1971w;game;2017-03-24-09-08-10;3,0;42,0;1000;2,0;0,0;3,0;1,0;row;0,0;True;True;True;1,66600012779;True;1,19599986076
SRA1971w;game;2017-03-24-09-08-10;3,0;43,0;1000;3,0;2,0;0,0;1,0;column;1,0;False;False;False;2,03500008583;True;1,12900018692
SRA1971w;game;2017-03-24-09-08-10;3,0;44,0;1000;1,0;2,0;3,0;0,0;column;0,0;False;False;False;2,56700015068;True;0,537999868393
SRA1971w;game;2017-03-24-09-08-10;3,0;45,0;1000;0,0;1,0;2,0;3,0;row;0,0;True;False;True;3,19799995422;True;0,569000005722
SRA1971w;game;2017-03-24-09-08-10;3,0;46,0;1000;3,0;1,0;0,0;2,0;row;0,0;False;False;False;2,53299999237;True;1,13000011444
SRA1971w;game;2017-03-24-09-08-10;3,0;47,0;1000;1,0;3,0;2,0;0,0;column;1,0;True;True;True;1,03299999237;True;1,43200016022
SRA1971w;game;2017-03-24-09-08-10;3,0;48,0;1000;3,0;2,0;1,0;0,0;column;1,0;False;True;False;2,40000009537;True;0,638999938965
SRA1971w;game;2017-03-24-09-08-10;4,0;1,0;100;3,0;0,0;1,0;2,0;column;0,0;True;False;True;1,59800004959;True;1,1210000515
SRA1971w;game;2017-03-24-09-08-10;4,0;2,0;100;2,0;0,0;3,0;1,0;column;1,0;False;False;False;1,59999990463;True;0,792999982834
SRA1971w;game;2017-03-24-09-08-10;4,0;3,0;100;1,0;2,0;3,0;0,0;row;0,0;False;False;False;1,40000009537;True;0,523000001907
SRA1971w;game;2017-03-24-09-08-10;4,0;4,0;100;0,0;3,0;1,0;2,0;row;1,0;False;False;False;1,46700000763;True;1,23099994659
SRA1971w;game;2017-03-24-09-08-10;4,0;5,0;100;3,0;1,0;0,0;2,0;row;0,0;True;True;False;2,23399996758;False;0,708000183105
SRA1971w;game;2017-03-24-09-08-10;4,0;6,0;100;1,0;0,0;2,0;3,0;column;0,0;True;True;False;2,59899997711;False;0,592000007629
SRA1971w;game;2017-03-24-09-08-10;4,0;7,0;100;2,0;0,0;3,0;1,0;row;0,0;False;False;False;1,76399993896;True;1,10100007057
SRA1971w;game;2017-03-24-09-08-10;4,0;8,0;100;3,0;2,0;0,0;1,0;row;1,0;False;True;False;2,33400011063;True;1,33299994469
SRA1971w;game;2017-03-24-09-08-10;4,0;9,0;100;3,0;2,0;0,0;1,0;column;1,0;True;True;True;1,73300004005;True;0,628999948502
SRA1971w;game;2017-03-24-09-08-10;4,0;10,0;100;2,0;3,0;0,0;1,0;row;0,0;True;True;True;2,46700000763;True;0,824999809265
SRA1971w;game;2017-03-24-09-08-10;4,0;11,0;100;2,0;0,0;3,0;1,0;column;0,0;True;True;True;1,53400015831;True;1,16000008583
SRA1971w;game;2017-03-24-09-08-10;4,0;12,0;100;0,0;3,0;2,0;1,0;column;0,0;True;False;True;1,59599995613;True;1,19000005722
SRA1971w;game;2017-03-24-09-08-10;4,0;13,0;100;0,0;1,0;2,0;3,0;row;1,0;True;True;True;1,66699981689;True;0,541000127792
SRA1971w;game;2017-03-24-09-08-10;4,0;14,0;100;3,0;1,0;2,0;0,0;row;0,0;False;True;False;1,5640001297;True;1,39300012589
SRA1971w;game;2017-03-24-09-08-10;4,0;15,0;100;3,0;2,0;0,0;1,0;row;0,0;False;True;False;1,59999990463;True;1,29600000381
SRA1971w;game;2017-03-24-09-08-10;4,0;16,0;100;0,0;1,0;2,0;3,0;row;1,0;False;True;False;2,43300008774;True;1,29299998283
SRA1971w;game;2017-03-24-09-08-10;4,0;17,0;100;3,0;2,0;1,0;0,0;row;1,0;True;True;True;2,49899983406;True;1,50500011444
SRA1971w;game;2017-03-24-09-08-10;4,0;18,0;100;3,0;2,0;1,0;0,0;row;0,0;True;False;True;0,967000007629;True;1,43400001526
SRA1971w;game;2017-03-24-09-08-10;4,0;19,0;100;0,0;1,0;2,0;3,0;column;0,0;False;False;False;1,7650001049;True;1,30099987984
SRA1971w;game;2017-03-24-09-08-10;4,0;20,0;100;3,0;1,0;0,0;2,0;column;1,0;False;True;False;1,93399977684;True;0,729000091553
SRA1971w;game;2017-03-24-09-08-10;4,0;21,0;100;3,0;0,0;1,0;2,0;column;0,0;False;True;False;2,49900007248;True;0,664000034332
SRA1971w;game;2017-03-24-09-08-10;4,0;22,0;100;1,0;2,0;3,0;0,0;column;0,0;True;False;True;1,132999897;True;1,49699997902
SRA1971w;game;2017-03-24-09-08-10;4,0;23,0;100;1,0;0,0;2,0;3,0;row;1,0;True;False;True;1,6970000267;True;0,757000207901
SRA1971w;game;2017-03-24-09-08-10;4,0;24,0;100;2,0;0,0;1,0;3,0;row;1,0;True;False;True;1,79999995232;True;0,595999956131
SRA1971w;game;2017-03-24-09-08-10;4,0;25,0;100;1,0;3,0;0,0;2,0;column;0,0;True;False;True;1,7650001049;True;1,49300003052
SRA1971w;game;2017-03-24-09-08-10;4,0;26,0;100;1,0;0,0;3,0;2,0;column;1,0;True;True;True;2,63500022888;True;0,799999952316
SRA1971w;game;2017-03-24-09-08-10;4,0;27,0;100;3,0;1,0;2,0;0,0;column;1,0;False;True;False;1,66700005531;True;1,23199987411
SRA1971w;game;2017-03-24-09-08-10;4,0;28,0;100;2,0;3,0;0,0;1,0;row;1,0;False;True;False;1,76699995995;True;1,13599991798
SRA1971w;game;2017-03-24-09-08-10;4,0;29,0;100;1,0;2,0;0,0;3,0;row;1,0;False;False;False;1,66599988937;True;1,33099985123
SRA1971w;game;2017-03-24-09-08-10;4,0;30,0;100;1,0;3,0;2,0;0,0;row;1,0;False;True;False;1,69999980927;True;1,03900003433
SRA1971w;game;2017-03-24-09-08-10;4,0;31,0;100;3,0;1,0;2,0;0,0;row;1,0;True;True;True;1,20000004768;True;1,06100010872
SRA1971w;game;2017-03-24-09-08-10;4,0;32,0;100;0,0;3,0;2,0;1,0;row;0,0;False;False;False;1,83300018311;True;0,963000059128
SRA1971w;game;2017-03-24-09-08-10;4,0;33,0;100;0,0;1,0;2,0;3,0;column;1,0;True;False;False;2,632999897;False;1,3900001049
SRA1971w;game;2017-03-24-09-08-10;4,0;34,0;100;3,0;0,0;1,0;2,0;row;1,0;True;True;True;1,13300013542;True;0,936000108719
SRA1971w;game;2017-03-24-09-08-10;4,0;35,0;100;3,0;1,0;0,0;2,0;row;1,0;False;True;False;1,83299994469;True;0,59500002861
SRA1971w;game;2017-03-24-09-08-10;4,0;36,0;100;2,0;1,0;3,0;0,0;column;1,0;False;True;False;2,09999990463;True;0,799999952316
SRA1971w;game;2017-03-24-09-08-10;4,0;37,0;100;0,0;2,0;1,0;3,0;row;1,0;True;False;True;2,36699986458;True;1,13499999046
SRA1971w;game;2017-03-24-09-08-10;4,0;38,0;100;2,0;0,0;1,0;3,0;row;0,0;True;True;True;1,132999897;True;1,5
SRA1971w;game;2017-03-24-09-08-10;4,0;39,0;100;0,0;2,0;3,0;1,0;column;1,0;True;False;True;1,53200006485;True;0,667999982834
SRA1971w;game;2017-03-24-09-08-10;4,0;40,0;100;1,0;3,0;2,0;0,0;column;0,0;True;True;True;2,36699986458;True;1,43499994278
SRA1971w;game;2017-03-24-09-08-10;4,0;41,0;100;3,0;1,0;0,0;2,0;row;1,0;True;False;False;3,66599988937;False;0,595999956131
SRA1971w;game;2017-03-24-09-08-10;4,0;42,0;100;1,0;0,0;3,0;2,0;row;1,0;True;False;True;2,29999995232;True;1,36600017548
SRA1971w;game;2017-03-24-09-08-10;4,0;43,0;100;3,0;1,0;2,0;0,0;row;1,0;False;True;False;1,90000009537;True;0,699000120163
SRA1971w;game;2017-03-24-09-08-10;4,0;44,0;100;2,0;3,0;1,0;0,0;row;0,0;False;False;False;2,13199996948;True;0,829999923706
SRA1971w;game;2017-03-24-09-08-10;4,0;45,0;100;2,0;0,0;3,0;1,0;row;0,0;True;True;True;1,93300008774;True;0,760999917984
SRA1971w;game;2017-03-24-09-08-10;4,0;46,0;100;3,0;2,0;1,0;0,0;column;1,0;True;True;True;4,59800004959;True;1,26400017738
SRA1971w;game;2017-03-24-09-08-10;4,0;47,0;100;3,0;2,0;1,0;0,0;row;0,0;False;True;False;2,867000103;True;0,660000085831
SRA1971w;game;2017-03-24-09-08-10;4,0;48,0;100;0,0;3,0;2,0;1,0;column;0,0;False;True;False;1,66699981689;True;1,30599999428
SRA1971w;game;2017-03-24-09-08-10;5,0;1,0;1000;3,0;2,0;1,0;0,0;column;1,0;True;False;True;2,16700005531;True;0,988999843597
SRA1971w;game;2017-03-24-09-08-10;5,0;2,0;1000;0,0;3,0;1,0;2,0;column;0,0;True;False;True;1,29999995232;True;0,558000087738
SRA1971w;game;2017-03-24-09-08-10;5,0;3,0;1000;0,0;3,0;1,0;2,0;row;0,0;False;False;False;1,5;True;1,4960000515
SRA1971w;game;2017-03-24-09-08-10;5,0;4,0;1000;1,0;2,0;3,0;0,0;row;1,0;False;False;False;1,90000009537;True;1,2009999752
SRA1971w;game;2017-03-24-09-08-10;5,0;5,0;1000;3,0;2,0;0,0;1,0;column;0,0;True;False;False;3,89599990845;False;1,07100009918
SRA1971w;game;2017-03-24-09-08-10;5,0;6,0;1000;1,0;3,0;2,0;0,0;row;0,0;True;False;True;1,66600012779;True;0,964999914169
SRA1971w;game;2017-03-24-09-08-10;5,0;7,0;1000;2,0;3,0;0,0;1,0;column;0,0;True;False;False;2,79999995232;False;0,533999919891
SRA1971w;game;2017-03-24-09-08-10;5,0;8,0;1000;3,0;1,0;2,0;0,0;row;0,0;False;False;False;1,99900007248;True;0,56500005722
SRA1971w;game;2017-03-24-09-08-10;5,0;9,0;1000;2,0;3,0;0,0;1,0;row;1,0;False;False;False;1,96700000763;True;0,536000013351
SRA1971w;game;2017-03-24-09-08-10;5,0;10,0;1000;0,0;1,0;3,0;2,0;row;1,0;False;True;True;4,83200001717;False;1,25900006294
SRA1971w;game;2017-03-24-09-08-10;5,0;11,0;1000;0,0;1,0;2,0;3,0;column;0,0;False;True;False;1,83500003815;True;0,861999988556
SRA1971w;game;2017-03-24-09-08-10;5,0;12,0;1000;1,0;0,0;2,0;3,0;row;0,0;False;False;False;1,39999985695;True;0,759000062943
SRA1971w;game;2017-03-24-09-08-10;5,0;13,0;1000;2,0;1,0;3,0;0,0;row;1,0;True;True;True;1,16600012779;True;0,703000068665
SRA1971w;game;2017-03-24-09-08-10;5,0;14,0;1000;1,0;0,0;3,0;2,0;row;1,0;True;False;True;1,33299994469;True;1,5039999485
SRA1971w;game;2017-03-24-09-08-10;5,0;15,0;1000;1,0;0,0;3,0;2,0;column;1,0;True;False;True;2,16400003433;True;0,970999956131
SRA1971w;game;2017-03-24-09-08-10;5,0;16,0;1000;2,0;0,0;3,0;1,0;row;1,0;True;False;True;1,86699986458;True;0,962999820709
SRA1971w;game;2017-03-24-09-08-10;5,0;17,0;1000;1,0;2,0;0,0;3,0;row;1,0;False;True;False;2,23100018501;True;0,628000020981
SRA1971w;game;2017-03-24-09-08-10;5,0;18,0;1000;1,0;0,0;3,0;2,0;column;0,0;True;True;True;1,132999897;True;1,39299988747
SRA1971w;game;2017-03-24-09-08-10;5,0;19,0;1000;0,0;2,0;3,0;1,0;column;0,0;True;True;True;2,5;True;1,05999994278
SRA1971w;game;2017-03-24-09-08-10;5,0;20,0;1000;1,0;3,0;0,0;2,0;row;0,0;False;False;True;2,13300013542;False;1,49499988556
SRA1971w;game;2017-03-24-09-08-10;5,0;21,0;1000;1,0;0,0;2,0;3,0;row;1,0;False;False;False;3,36599993706;True;1,13199996948
SRA1971w;game;2017-03-24-09-08-10;5,0;22,0;1000;2,0;3,0;1,0;0,0;column;1,0;True;True;True;1,73300004005;True;1,26600003242
SRA1971w;game;2017-03-24-09-08-10;5,0;23,0;1000;2,0;0,0;1,0;3,0;column;0,0;True;True;True;1,06699991226;True;1,06200003624
SRA1971w;game;2017-03-24-09-08-10;5,0;24,0;1000;0,0;1,0;3,0;2,0;row;0,0;False;True;False;2,16600012779;True;0,825999975204
SRA1971w;game;2017-03-24-09-08-10;5,0;25,0;1000;3,0;1,0;2,0;0,0;column;0,0;False;True;False;2,0;True;1,1930000782
SRA1971w;game;2017-03-24-09-08-10;5,0;26,0;1000;0,0;1,0;2,0;3,0;row;1,0;True;False;True;1,93300008774;True;0,793999910355
SRA1971w;game;2017-03-24-09-08-10;5,0;27,0;1000;2,0;1,0;3,0;0,0;row;0,0;False;False;False;3,20000004768;True;1,15999984741
SRA1971w;game;2017-03-24-09-08-10;5,0;28,0;1000;1,0;3,0;0,0;2,0;row;1,0;True;False;True;1,90100002289;True;1,12900018692
SRA1971w;game;2017-03-24-09-08-10;5,0;29,0;1000;1,0;3,0;0,0;2,0;row;0,0;True;True;True;2,03299999237;True;1,32899999619
SRA1971w;game;2017-03-24-09-08-10;5,0;30,0;1000;2,0;1,0;0,0;3,0;row;0,0;False;True;False;2,60000014305;True;1,29200005531
SRA1971w;game;2017-03-24-09-08-10;5,0;31,0;1000;2,0;0,0;3,0;1,0;column;1,0;True;True;True;1,40000009537;True;0,834000110626
SRA1971w;game;2017-03-24-09-08-10;5,0;32,0;1000;0,0;3,0;1,0;2,0;row;0,0;True;False;True;2,73300004005;True;1,33099985123
SRA1971w;game;2017-03-24-09-08-10;5,0;33,0;1000;1,0;3,0;0,0;2,0;column;1,0;False;False;False;2,59900021553;True;1,12699985504
SRA1971w;game;2017-03-24-09-08-10;5,0;34,0;1000;3,0;1,0;0,0;2,0;column;0,0;True;True;True;1,132999897;True;1,26499986649
SRA1971w;game;2017-03-24-09-08-10;5,0;35,0;1000;2,0;1,0;0,0;3,0;column;1,0;False;True;False;2,43300008774;True;1,19600009918
SRA1971w;game;2017-03-24-09-08-10;5,0;36,0;1000;0,0;2,0;3,0;1,0;column;0,0;False;True;False;2,13199996948;True;1,49799990654
SRA1971w;game;2017-03-24-09-08-10;5,0;37,0;1000;1,0;3,0;0,0;2,0;column;0,0;True;True;False;4,23399996758;False;0,964999914169
SRA1971w;game;2017-03-24-09-08-10;5,0;38,0;1000;1,0;0,0;2,0;3,0;column;0,0;True;True;True;1,36699986458;True;1,16199994087
SRA1971w;game;2017-03-24-09-08-10;5,0;39,0;1000;1,0;2,0;3,0;0,0;row;0,0;False;False;False;2,367000103;True;0,904000043869
SRA1971w;game;2017-03-24-09-08-10;5,0;40,0;1000;2,0;1,0;0,0;3,0;row;1,0;True;False;True;2,23300004005;True;0,862999916077
SRA1971w;game;2017-03-24-09-08-10;5,0;41,0;1000;3,0;0,0;2,0;1,0;column;0,0;True;True;True;1,132999897;True;0,5609998703
SRA1971w;game;2017-03-24-09-08-10;5,0;42,0;1000;0,0;2,0;3,0;1,0;row;1,0;False;True;False;2,49900007248;True;1,1899998188
SRA1971w;game;2017-03-24-09-08-10;5,0;43,0;1000;2,0;3,0;1,0;0,0;column;1,0;False;False;False;2,16799998283;True;0,757999897003
SRA1971w;game;2017-03-24-09-08-10;5,0;44,0;1000;1,0;0,0;2,0;3,0;column;1,0;True;False;True;1,66599988937;True;1,5
SRA1971w;game;2017-03-24-09-08-10;5,0;45,0;1000;3,0;0,0;2,0;1,0;row;0,0;False;True;False;2,23300004005;True;1,39199995995
SRA1971w;game;2017-03-24-09-08-10;5,0;46,0;1000;3,0;1,0;0,0;2,0;column;0,0;False;True;False;2,63199996948;True;0,670000076294
SRA1971w;game;2017-03-24-09-08-10;5,0;47,0;1000;0,0;1,0;2,0;3,0;column;1,0;True;True;True;0,933000087738;True;0,796000003815
SRA1971w;game;2017-03-24-09-08-10;5,0;48,0;1000;3,0;0,0;1,0;2,0;column;0,0;True;False;True;1,6970000267;True;1,46200013161
SRA1971w;game;2017-03-24-09-08-10;6,0;1,0;-100;0,0;2,0;1,0;3,0;column;0,0;False;False;False;2,25;True;1,05200004578
SRA1971w;game;2017-03-24-09-08-10;6,0;2,0;-100;2,0;0,0;3,0;1,0;column;0,0;False;True;False;2,11599993706;True;0,963000059128
SRA1971w;game;2017-03-24-09-08-10;6,0;3,0;-100;0,0;2,0;1,0;3,0;column;1,0;True;False;True;1,51699995995;True;1,06699991226
SRA1971w;game;2017-03-24-09-08-10;6,0;4,0;-100;3,0;1,0;2,0;0,0;row;1,0;False;True;False;1,71600008011;True;0,728000164032
SRA1971w;game;2017-03-24-09-08-10;6,0;5,0;-100;3,0;2,0;0,0;1,0;row;0,0;True;True;True;2,31699991226;True;0,830999851227
SRA1971w;game;2017-03-24-09-08-10;6,0;6,0;-100;1,0;2,0;3,0;0,0;column;0,0;True;True;False;1,95000004768;False;0,959000110626
SRA1971w;game;2017-03-24-09-08-10;6,0;7,0;-100;0,0;3,0;2,0;1,0;column;0,0;True;True;True;1,28299999237;True;0,692999839783
SRA1971w;game;2017-03-24-09-08-10;6,0;8,0;-100;1,0;3,0;2,0;0,0;row;0,0;True;False;True;1,08300018311;True;0,733999967575
SRA1971w;game;2017-03-24-09-08-10;6,0;9,0;-100;3,0;2,0;0,0;1,0;row;1,0;False;True;False;1,88500022888;True;1,4960000515
SRA1971w;game;2017-03-24-09-08-10;6,0;10,0;-100;0,0;1,0;3,0;2,0;row;1,0;False;False;False;2,11500000954;True;1,29600000381
SRA1971w;game;2017-03-24-09-08-10;6,0;11,0;-100;2,0;1,0;3,0;0,0;column;0,0;True;True;True;2,25;True;1,46199989319
SRA1971w;game;2017-03-24-09-08-10;6,0;12,0;-100;3,0;2,0;0,0;1,0;column;0,0;True;False;True;1,68400001526;True;0,558000087738
SRA1971w;game;2017-03-24-09-08-10;6,0;13,0;-100;0,0;1,0;3,0;2,0;column;1,0;True;True;True;1,25;True;0,559000015259
SRA1971w;game;2017-03-24-09-08-10;6,0;14,0;-100;0,0;2,0;3,0;1,0;column;0,0;True;False;True;0,983000040054;True;0,961999893188
SRA1971w;game;2017-03-24-09-08-10;6,0;15,0;-100;0,0;1,0;3,0;2,0;row;1,0;True;True;True;1,38399982452;True;0,930999994278
SRA1971w;game;2017-03-24-09-08-10;6,0;16,0;-100;2,0;0,0;3,0;1,0;row;1,0;False;False;False;1,85000014305;True;1,02999997139
SRA1971w;game;2017-03-24-09-08-10;6,0;17,0;-100;0,0;3,0;1,0;2,0;column;0,0;False;False;False;1,58200001717;True;1,39699983597
SRA1971w;game;2017-03-24-09-08-10;6,0;18,0;-100;2,0;3,0;1,0;0,0;row;1,0;False;True;False;2,95000004768;True;0,632999897003
SRA1971w;game;2017-03-24-09-08-10;6,0;19,0;-100;0,0;2,0;3,0;1,0;row;1,0;False;False;False;1,98300004005;True;1,09300017357
SRA1971w;game;2017-03-24-09-08-10;6,0;20,0;-100;0,0;3,0;1,0;2,0;row;1,0;True;False;True;1,48300004005;True;1,46399998665
SRA1971w;game;2017-03-24-09-08-10;6,0;21,0;-100;3,0;2,0;1,0;0,0;column;1,0;True;True;False;2,34800004959;False;1,26299977303
SRA1971w;game;2017-03-24-09-08-10;6,0;22,0;-100;0,0;1,0;2,0;3,0;column;0,0;False;True;False;1,4470000267;True;0,756000041962
SRA1971w;game;2017-03-24-09-08-10;6,0;23,0;-100;2,0;3,0;0,0;1,0;column;1,0;True;True;True;1,58299994469;True;1,09300017357
SRA1971w;game;2017-03-24-09-08-10;6,0;24,0;-100;2,0;0,0;1,0;3,0;row;0,0;True;False;True;0,983999967575;True;1,06100010872
SRA1971w;game;2017-03-24-09-08-10;6,0;25,0;-100;2,0;3,0;1,0;0,0;row;0,0;False;False;True;1,55099987984;False;1,43400001526
SRA1971w;game;2017-03-24-09-08-10;6,0;26,0;-100;3,0;1,0;0,0;2,0;row;0,0;False;False;False;1,65099978447;True;1,05999994278
SRA1971w;game;2017-03-24-09-08-10;6,0;27,0;-100;3,0;1,0;0,0;2,0;row;1,0;False;True;False;1,58299994469;True;0,589999914169
SRA1971w;game;2017-03-24-09-08-10;6,0;28,0;-100;0,0;2,0;3,0;1,0;row;0,0;True;True;False;2,15000009537;False;1,32899999619
SRA1971w;game;2017-03-24-09-08-10;6,0;29,0;-100;1,0;2,0;3,0;0,0;row;1,0;True;True;True;0,84700012207;True;0,690999984741
SRA1971w;game;2017-03-24-09-08-10;6,0;30,0;-100;1,0;0,0;3,0;2,0;row;0,0;False;False;False;3,31699991226;True;0,961999893188
SRA1971w;game;2017-03-24-09-08-10;6,0;31,0;-100;3,0;1,0;0,0;2,0;row;0,0;True;True;True;1,54999995232;True;1,36199998856
SRA1971w;game;2017-03-24-09-08-10;6,0;32,0;-100;3,0;0,0;2,0;1,0;column;0,0;True;False;True;0,950000047684;True;1,16100001335
SRA1971w;game;2017-03-24-09-08-10;6,0;33,0;-100;3,0;0,0;1,0;2,0;column;0,0;False;False;False;2,48399996758;True;1,46399998665
SRA1971w;game;2017-03-24-09-08-10;6,0;34,0;-100;2,0;3,0;1,0;0,0;row;0,0;True;False;True;0,948999881744;True;1,26999998093
SRA1971w;game;2017-03-24-09-08-10;6,0;35,0;-100;3,0;1,0;2,0;0,0;column;0,0;True;False;True;1,08100008965;True;1,09000015259
SRA1971w;game;2017-03-24-09-08-10;6,0;36,0;-100;0,0;2,0;1,0;3,0;column;0,0;True;False;True;1,08300018311;True;0,863999843597
SRA1971w;game;2017-03-24-09-08-10;6,0;37,0;-100;1,0;2,0;0,0;3,0;column;0,0;False;True;False;1,81700015068;True;1,50300002098
SRA1971w;game;2017-03-24-09-08-10;6,0;38,0;-100;3,0;1,0;2,0;0,0;row;1,0;True;True;True;2,64800000191;True;0,733000040054
SRA1971w;game;2017-03-24-09-08-10;6,0;39,0;-100;2,0;1,0;0,0;3,0;row;1,0;True;True;True;1,21700000763;True;1,32799983025
SRA1971w;game;2017-03-24-09-08-10;6,0;40,0;-100;2,0;3,0;0,0;1,0;row;1,0;True;False;True;1,31699991226;True;0,757999897003
SRA1971w;game;2017-03-24-09-08-10;6,0;41,0;-100;2,0;1,0;0,0;3,0;column;0,0;True;True;True;1,54800009727;True;0,825999975204
SRA1971w;game;2017-03-24-09-08-10;6,0;42,0;-100;1,0;3,0;0,0;2,0;column;0,0;True;True;True;1,21600008011;True;1,20000004768
SRA1971w;game;2017-03-24-09-08-10;6,0;43,0;-100;0,0;1,0;2,0;3,0;column;1,0;True;True;True;1,38300013542;True;1,10800004005
SRA1971w;game;2017-03-24-09-08-10;6,0;44,0;-100;3,0;2,0;1,0;0,0;row;0,0;True;False;True;0,783999919891;True;0,866000175476
SRA1971w;game;2017-03-24-09-08-10;6,0;45,0;-100;3,0;0,0;1,0;2,0;column;1,0;False;True;False;1,78299999237;True;1,03499984741
SRA1971w;game;2017-03-24-09-08-10;6,0;46,0;-100;0,0;1,0;2,0;3,0;row;0,0;False;False;False;1,78299999237;True;1,492000103
SRA1971w;game;2017-03-24-09-08-10;6,0;47,0;-100;3,0;2,0;0,0;1,0;column;1,0;False;True;False;1,18300008774;True;1,32999992371
SRA1971w;game;2017-03-24-09-08-10;6,0;48,0;-100;2,0;0,0;3,0;1,0;column;0,0;True;False;True;0,949000120163;True;1,03700017929
SRA1971w;game;2017-03-24-09-08-10;7,0;1,0;-100;1,0;0,0;2,0;3,0;row;1,0;True;True;False;1,51600003242;False;0,559000015259
SRA1971w;game;2017-03-24-09-08-10;7,0;2,0;-100;0,0;1,0;3,0;2,0;column;1,0;False;False;False;1,41599988937;True;1,39400005341
SRA1971w;game;2017-03-24-09-08-10;7,0;3,0;-100;2,0;3,0;0,0;1,0;row;0,0;False;True;False;1,04699993134;True;1,32500004768
SRA1971w;game;2017-03-24-09-08-10;7,0;4,0;-100;1,0;2,0;3,0;0,0;column;0,0;False;False;False;1,48299980164;True;1,17000007629
SRA1971w;game;2017-03-24-09-08-10;7,0;5,0;-100;2,0;1,0;0,0;3,0;row;0,0;True;False;True;1,42000007629;True;1,29699993134
SRA1971w;game;2017-03-24-09-08-10;7,0;6,0;-100;2,0;3,0;0,0;1,0;column;0,0;False;False;False;1,84999990463;True;1,39100003242
SRA1971w;game;2017-03-24-09-08-10;7,0;7,0;-100;2,0;0,0;3,0;1,0;column;1,0;True;False;True;1,21800017357;True;1,09999990463
SRA1971w;game;2017-03-24-09-08-10;7,0;8,0;-100;1,0;2,0;0,0;3,0;column;0,0;True;True;True;1,45000004768;True;1,46099996567
SRA1971w;game;2017-03-24-09-08-10;7,0;9,0;-100;1,0;2,0;0,0;3,0;row;1,0;True;True;True;0,916000127792;True;1,26400017738
SRA1971w;game;2017-03-24-09-08-10;7,0;10,0;-100;3,0;2,0;1,0;0,0;column;0,0;True;False;True;1,08299994469;True;0,802999973297
SRA1971w;game;2017-03-24-09-08-10;7,0;11,0;-100;0,0;2,0;3,0;1,0;row;1,0;True;True;True;1,25;True;0,830000162125
SRA1971w;game;2017-03-24-09-08-10;7,0;12,0;-100;1,0;2,0;0,0;3,0;row;0,0;True;False;True;0,949000120163;True;0,555999994278
SRA1971w;game;2017-03-24-09-08-10;7,0;13,0;-100;3,0;2,0;1,0;0,0;row;1,0;True;True;True;1,48099994659;True;0,825999975204
SRA1971w;game;2017-03-24-09-08-10;7,0;14,0;-100;0,0;3,0;2,0;1,0;column;1,0;True;True;True;1,41700005531;True;1,05900001526
SRA1971w;game;2017-03-24-09-08-10;7,0;15,0;-100;2,0;3,0;0,0;1,0;row;1,0;False;True;False;1,41499996185;True;1,16299986839
SRA1971w;game;2017-03-24-09-08-10;7,0;16,0;-100;1,0;3,0;2,0;0,0;row;1,0;True;False;True;1,28099989891;True;1,09699988365
SRA1971w;game;2017-03-24-09-08-10;7,0;17,0;-100;3,0;1,0;2,0;0,0;row;0,0;False;True;False;1,58199977875;True;1,46600008011
SRA1971w;game;2017-03-24-09-08-10;7,0;18,0;-100;1,0;2,0;0,0;3,0;column;1,0;False;True;False;2,21700000763;True;0,967000007629
SRA1971w;game;2017-03-24-09-08-10;7,0;19,0;-100;2,0;1,0;0,0;3,0;column;1,0;False;False;False;2,41700005531;True;0,891999959946
SRA1971w;game;2017-03-24-09-08-10;7,0;20,0;-100;2,0;1,0;0,0;3,0;row;0,0;False;False;False;1,54800009727;True;0,734999895096
SRA1971w;game;2017-03-24-09-08-10;7,0;21,0;-100;2,0;3,0;1,0;0,0;column;1,0;False;False;False;2,04999995232;True;0,739000082016
SRA1971w;game;2017-03-24-09-08-10;7,0;22,0;-100;0,0;2,0;1,0;3,0;column;1,0;False;True;False;1,58099985123;True;0,697999954224
SRA1971w;game;2017-03-24-09-08-10;7,0;23,0;-100;1,0;3,0;0,0;2,0;row;1,0;True;True;True;0,950000047684;True;1,45900011063
SRA1971w;game;2017-03-24-09-08-10;7,0;24,0;-100;0,0;2,0;3,0;1,0;row;0,0;False;False;False;1,6139998436;True;1,40299987793
SRA1971w;game;2017-03-24-09-08-10;7,0;25,0;-100;2,0;0,0;3,0;1,0;row;0,0;False;False;False;1,68299984932;True;1,43600010872
SRA1971w;game;2017-03-24-09-08-10;7,0;26,0;-100;3,0;1,0;2,0;0,0;column;1,0;False;True;False;1,44600009918;True;1,33299994469
SRA1971w;game;2017-03-24-09-08-10;7,0;27,0;-100;1,0;0,0;2,0;3,0;row;0,0;False;True;False;1,21700000763;True;0,894999980927
SRA1971w;game;2017-03-24-09-08-10;7,0;28,0;-100;3,0;0,0;2,0;1,0;column;1,0;False;False;False;1,64899992943;True;0,757999897003
SRA1971w;game;2017-03-24-09-08-10;7,0;29,0;-100;1,0;2,0;3,0;0,0;row;0,0;False;False;False;1,85000014305;True;1,30099987984
SRA1971w;game;2017-03-24-09-08-10;7,0;30,0;-100;1,0;3,0;0,0;2,0;row;0,0;False;False;False;1,41499996185;True;0,859000205994
SRA1971w;game;2017-03-24-09-08-10;7,0;31,0;-100;0,0;2,0;3,0;1,0;column;0,0;False;True;False;1,31699991226;True;1,39400005341
SRA1971w;game;2017-03-24-09-08-10;7,0;32,0;-100;3,0;1,0;2,0;0,0;column;1,0;True;True;False;3,04999995232;False;0,889999866486
SRA1971w;game;2017-03-24-09-08-10;7,0;33,0;-100;1,0;0,0;2,0;3,0;column;1,0;True;True;True;1,58299994469;True;0,524999856949
SRA1971w;game;2017-03-24-09-08-10;7,0;34,0;-100;2,0;3,0;1,0;0,0;column;0,0;True;True;True;2,08299994469;True;0,792000055313
SRA1971w;game;2017-03-24-09-08-10;7,0;35,0;-100;3,0;1,0;2,0;0,0;row;0,0;True;True;True;1,91599988937;True;1,05900001526
SRA1971w;game;2017-03-24-09-08-10;7,0;36,0;-100;0,0;2,0;3,0;1,0;column;1,0;False;False;True;1,68300008774;False;1,46099996567
SRA1971w;game;2017-03-24-09-08-10;7,0;37,0;-100;1,0;3,0;2,0;0,0;column;1,0;False;True;False;2,88199996948;True;1,03200006485
SRA1971w;game;2017-03-24-09-08-10;7,0;38,0;-100;1,0;0,0;2,0;3,0;column;0,0;False;True;False;1,21700000763;True;1,19100022316
SRA1971w;game;2017-03-24-09-08-10;7,0;39,0;-100;0,0;1,0;2,0;3,0;row;1,0;False;True;False;1,51599979401;True;0,592000007629
SRA1971w;game;2017-03-24-09-08-10;7,0;40,0;-100;1,0;0,0;2,0;3,0;row;0,0;True;False;True;0,817000150681;True;0,629999876022
SRA1971w;game;2017-03-24-09-08-10;7,0;41,0;-100;2,0;1,0;3,0;0,0;row;0,0;False;False;False;1,117000103;True;1,05700016022
SRA1971w;game;2017-03-24-09-08-10;7,0;42,0;-100;3,0;1,0;2,0;0,0;column;0,0;False;True;False;0,983999967575;True;0,764999866486
SRA1971w;game;2017-03-24-09-08-10;7,0;43,0;-100;3,0;1,0;0,0;2,0;column;0,0;True;False;True;0,916999816895;True;1,19200015068
SRA1971w;game;2017-03-24-09-08-10;7,0;44,0;-100;2,0;1,0;0,0;3,0;row;1,0;False;True;False;1,55099987984;True;1,46900010109
SRA1971w;game;2017-03-24-09-08-10;7,0;45,0;-100;1,0;2,0;0,0;3,0;row;1,0;False;False;False;2,24799990654;True;1,1930000782
SRA1971w;game;2017-03-24-09-08-10;7,0;46,0;-100;1,0;0,0;2,0;3,0;column;0,0;True;True;False;2,75;False;0,628999948502
SRA1971w;game;2017-03-24-09-08-10;7,0;47,0;-100;2,0;3,0;1,0;0,0;column;1,0;True;False;True;1,58500003815;True;0,996999979019
SRA1971w;game;2017-03-24-09-08-10;7,0;48,0;-100;1,0;2,0;3,0;0,0;row;0,0;True;False;True;1,28299999237;True;1,13400006294
SRA1971w;game;2017-03-24-09-08-10;8,0;1,0;1000;1,0;2,0;3,0;0,0;row;1,0;True;False;True;1,96700000763;True;1,14999985695
SRA1971w;game;2017-03-24-09-08-10;8,0;2,0;1000;1,0;3,0;0,0;2,0;row;1,0;False;True;False;2,13199996948;True;0,773000001907
SRA1971w;game;2017-03-24-09-08-10;8,0;3,0;1000;1,0;3,0;2,0;0,0;row;0,0;False;False;False;1,69899988174;True;0,868000030518
SRA1971w;game;2017-03-24-09-08-10;8,0;4,0;1000;3,0;2,0;1,0;0,0;column;0,0;False;False;False;1,89999985695;True;0,56200003624
SRA1971w;game;2017-03-24-09-08-10;8,0;5,0;1000;2,0;0,0;1,0;3,0;row;1,0;False;True;False;2,83399987221;True;1,43700003624
SRA1971w;game;2017-03-24-09-08-10;8,0;6,0;1000;2,0;1,0;3,0;0,0;row;1,0;False;True;False;2,13300013542;True;1,4319999218
SRA1971w;game;2017-03-24-09-08-10;8,0;7,0;1000;2,0;1,0;3,0;0,0;column;0,0;True;False;True;1,0;True;1,09399986267
SRA1971w;game;2017-03-24-09-08-10;8,0;8,0;1000;1,0;3,0;2,0;0,0;row;1,0;False;False;False;3,46700000763;True;0,996999979019
SRA1971w;game;2017-03-24-09-08-10;8,0;9,0;1000;2,0;3,0;0,0;1,0;column;0,0;False;False;False;1,76600003242;True;0,967000007629
SRA1971w;game;2017-03-24-09-08-10;8,0;10,0;1000;3,0;0,0;1,0;2,0;row;1,0;False;False;False;2,29600000381;True;1,22899985313
SRA1971w;game;2017-03-24-09-08-10;8,0;11,0;1000;0,0;3,0;2,0;1,0;row;1,0;False;False;False;1,56699991226;True;0,931999921799
SRA1971w;game;2017-03-24-09-08-10;8,0;12,0;1000;0,0;1,0;3,0;2,0;row;0,0;True;True;True;1,63199996948;True;0,657999992371
SRA1971w;game;2017-03-24-09-08-10;8,0;13,0;1000;3,0;2,0;1,0;0,0;row;1,0;False;False;False;2,29999995232;True;1,12800002098
SRA1971w;game;2017-03-24-09-08-10;8,0;14,0;1000;2,0;1,0;0,0;3,0;column;1,0;True;True;True;1,06700015068;True;1,29500007629
SRA1971w;game;2017-03-24-09-08-10;8,0;15,0;1000;0,0;1,0;2,0;3,0;row;0,0;False;True;False;3,09899997711;True;0,797999858856
SRA1971w;game;2017-03-24-09-08-10;8,0;16,0;1000;2,0;0,0;3,0;1,0;row;0,0;False;True;False;2,80000019073;True;1,32800006866
SRA1971w;game;2017-03-24-09-08-10;8,0;17,0;1000;1,0;3,0;2,0;0,0;column;1,0;False;False;False;3,06699991226;True;0,771999835968
SRA1971w;game;2017-03-24-09-08-10;8,0;18,0;1000;3,0;0,0;1,0;2,0;row;0,0;False;False;False;2,00099992752;True;0,759999990463
SRA1971w;game;2017-03-24-09-08-10;8,0;19,0;1000;0,0;1,0;3,0;2,0;column;0,0;True;True;True;2,23199987411;True;0,635999917984
SRA1971w;game;2017-03-24-09-08-10;8,0;20,0;1000;0,0;2,0;3,0;1,0;row;0,0;False;True;False;1,96600008011;True;0,563999891281
SRA1971w;game;2017-03-24-09-08-10;8,0;21,0;1000;3,0;1,0;0,0;2,0;row;0,0;True;False;True;0,967000007629;True;1,46199989319
SRA1971w;game;2017-03-24-09-08-10;8,0;22,0;1000;2,0;1,0;0,0;3,0;column;0,0;True;False;True;1,29999995232;True;1,22900009155
SRA1971w;game;2017-03-24-09-08-10;8,0;23,0;1000;2,0;1,0;3,0;0,0;column;1,0;False;True;False;2,10000014305;True;0,860000133514
SRA1971w;game;2017-03-24-09-08-10;8,0;24,0;1000;2,0;0,0;3,0;1,0;row;1,0;False;False;False;1,73399996758;True;1,26399993896
SRA1971w;game;2017-03-24-09-08-10;8,0;25,0;1000;3,0;1,0;0,0;2,0;column;1,0;True;True;False;3,39999985695;False;1,33299994469
SRA1971w;game;2017-03-24-09-08-10;8,0;26,0;1000;0,0;2,0;1,0;3,0;column;0,0;True;True;True;1,03299999237;True;0,799999952316
SRA1971w;game;2017-03-24-09-08-10;8,0;27,0;1000;0,0;1,0;3,0;2,0;column;1,0;True;True;True;1,66700005531;True;0,957000017166
SRA1971w;game;2017-03-24-09-08-10;8,0;28,0;1000;0,0;3,0;1,0;2,0;column;1,0;False;False;False;2,13300013542;True;1,49900007248
SRA1971w;game;2017-03-24-09-08-10;8,0;29,0;1000;3,0;0,0;1,0;2,0;column;1,0;True;True;True;1,66700005531;True;0,936000108719
SRA1971w;game;2017-03-24-09-08-10;8,0;30,0;1000;2,0;1,0;3,0;0,0;column;1,0;True;False;True;1,69999980927;True;0,5640001297
SRA1971w;game;2017-03-24-09-08-10;8,0;31,0;1000;0,0;2,0;1,0;3,0;row;1,0;False;False;False;2,03299999237;True;1,23399996758
SRA1971w;game;2017-03-24-09-08-10;8,0;32,0;1000;2,0;1,0;0,0;3,0;row;1,0;False;True;True;3,132999897;False;0,530999898911
SRA1971w;game;2017-03-24-09-08-10;8,0;33,0;1000;2,0;3,0;0,0;1,0;row;0,0;True;False;True;1,26699995995;True;1,02999997139
SRA1971w;game;2017-03-24-09-08-10;8,0;34,0;1000;2,0;0,0;1,0;3,0;column;0,0;False;False;False;1,63300013542;True;1,09899997711
SRA1971w;game;2017-03-24-09-08-10;8,0;35,0;1000;2,0;0,0;3,0;1,0;column;1,0;False;True;False;2,73300004005;True;0,725000143051
SRA1971w;game;2017-03-24-09-08-10;8,0;36,0;1000;1,0;2,0;0,0;3,0;column;0,0;False;True;False;2,33299994469;True;1,09400010109
SRA1971w;game;2017-03-24-09-08-10;8,0;37,0;1000;1,0;2,0;3,0;0,0;row;0,0;True;True;True;2,33299994469;True;1,4960000515
SRA1971w;game;2017-03-24-09-08-10;8,0;38,0;1000;2,0;0,0;1,0;3,0;row;0,0;False;False;False;1,90000009537;True;1,17299985886
SRA1971w;game;2017-03-24-09-08-10;8,0;39,0;1000;1,0;2,0;0,0;3,0;column;1,0;False;True;False;2,06700015068;True;1,49400019646
SRA1971w;game;2017-03-24-09-08-10;8,0;40,0;1000;0,0;1,0;3,0;2,0;column;0,0;False;False;False;1,76600003242;True;1,02500009537
SRA1971w;game;2017-03-24-09-08-10;8,0;41,0;1000;3,0;0,0;2,0;1,0;row;1,0;False;True;False;3,0;True;0,927000045776
SRA1971w;game;2017-03-24-09-08-10;8,0;42,0;1000;0,0;3,0;2,0;1,0;column;1,0;True;True;True;0,966999769211;True;1,23200011253
SRA1971w;game;2017-03-24-09-08-10;8,0;43,0;1000;3,0;0,0;1,0;2,0;row;0,0;True;False;True;0,865999937057;True;1,27099990845
SRA1971w;game;2017-03-24-09-08-10;8,0;44,0;1000;0,0;3,0;1,0;2,0;row;1,0;True;False;True;2,13300013542;True;1,2009999752
SRA1971w;game;2017-03-24-09-08-10;8,0;45,0;1000;1,0;0,0;3,0;2,0;row;0,0;False;False;False;2,36800003052;True;1,02500009537
SRA1971w;game;2017-03-24-09-08-10;8,0;46,0;1000;0,0;2,0;3,0;1,0;column;1,0;False;False;False;1,59999990463;True;1,29100012779
SRA1971w;game;2017-03-24-09-08-10;8,0;47,0;1000;3,0;1,0;2,0;0,0;row;1,0;True;True;True;1,03299999237;True;1,46199989319
SRA1971w;game;2017-03-24-09-08-10;8,0;48,0;1000;1,0;0,0;2,0;3,0;row;0,0;True;True;False;2,2990000248;False;1,09800004959
SRA1971w;game;2017-03-24-09-08-10;9,0;1,0;100;2,0;1,0;3,0;0,0;row;0,0;False;True;False;1,43099999428;True;1,09400010109
SRA1971w;game;2017-03-24-09-08-10;9,0;2,0;100;1,0;3,0;2,0;0,0;column;0,0;False;False;False;1,43299984932;True;1,49000000954
SRA1971w;game;2017-03-24-09-08-10;9,0;3,0;100;3,0;0,0;2,0;1,0;row;1,0;False;False;False;2,03200006485;True;0,768000125885
SRA1971w;game;2017-03-24-09-08-10;9,0;4,0;100;1,0;3,0;0,0;2,0;row;0,0;True;True;True;2,13399982452;True;0,59500002861
SRA1971w;game;2017-03-24-09-08-10;9,0;5,0;100;1,0;0,0;2,0;3,0;column;1,0;True;False;True;1,16700005531;True;0,736999988556
SRA1971w;game;2017-03-24-09-08-10;9,0;6,0;100;2,0;0,0;1,0;3,0;column;1,0;False;False;False;1,76699995995;True;0,792000055313
SRA1971w;game;2017-03-24-09-08-10;9,0;7,0;100;0,0;1,0;3,0;2,0;row;0,0;True;True;True;1,63199996948;True;0,993999958038
SRA1971w;game;2017-03-24-09-08-10;9,0;8,0;100;3,0;0,0;2,0;1,0;column;0,0;False;False;False;2,86699986458;True;0,724999904633
SRA1971w;game;2017-03-24-09-08-10;9,0;9,0;100;1,0;3,0;0,0;2,0;column;1,0;False;True;True;3,29800009727;False;1,46099996567
SRA1971w;game;2017-03-24-09-08-10;9,0;10,0;100;2,0;0,0;1,0;3,0;column;1,0;True;True;True;1,73300004005;True;0,694999933243
SRA1971w;game;2017-03-24-09-08-10;9,0;11,0;100;0,0;2,0;1,0;3,0;row;0,0;True;False;True;1,16599988937;True;0,993000030518
SRA1971w;game;2017-03-24-09-08-10;9,0;12,0;100;3,0;0,0;2,0;1,0;column;0,0;True;True;True;1,93299984932;True;0,59700012207
SRA1971w;game;2017-03-24-09-08-10;9,0;13,0;100;2,0;1,0;3,0;0,0;row;1,0;True;False;True;1,59899997711;True;0,865000009537
SRA1971w;game;2017-03-24-09-08-10;9,0;14,0;100;3,0;0,0;2,0;1,0;row;1,0;True;True;True;2,46700000763;True;0,664000034332
SRA1971w;game;2017-03-24-09-08-10;9,0;15,0;100;2,0;1,0;0,0;3,0;row;1,0;False;True;False;1,89899992943;True;0,696000099182
SRA1971w;game;2017-03-24-09-08-10;9,0;16,0;100;3,0;1,0;0,0;2,0;row;0,0;False;True;False;1,93300008774;True;1,26600003242
SRA1971w;game;2017-03-24-09-08-10;9,0;17,0;100;1,0;0,0;3,0;2,0;column;1,0;False;True;False;1,90000009537;True;1,39100003242
SRA1971w;game;2017-03-24-09-08-10;9,0;18,0;100;2,0;3,0;1,0;0,0;row;1,0;False;True;True;1,7650001049;False;0,936000108719
SRA1971w;game;2017-03-24-09-08-10;9,0;19,0;100;2,0;3,0;1,0;0,0;column;1,0;True;True;True;1,66399979591;True;1,49799990654
SRA1971w;game;2017-03-24-09-08-10;9,0;20,0;100;1,0;3,0;0,0;2,0;column;1,0;True;False;True;1,867000103;True;1,1740000248
SRA1971w;game;2017-03-24-09-08-10;9,0;21,0;100;2,0;1,0;0,0;3,0;row;1,0;True;False;True;1,73300004005;True;1,46499991417
SRA1971w;game;2017-03-24-09-08-10;9,0;22,0;100;3,0;0,0;2,0;1,0;row;0,0;False;True;False;2,2009999752;True;0,759999990463
SRA1971w;game;2017-03-24-09-08-10;9,0;23,0;100;1,0;2,0;3,0;0,0;column;1,0;True;True;True;2,0;True;1,12800002098
SRA1971w;game;2017-03-24-09-08-10;9,0;24,0;100;0,0;3,0;1,0;2,0;row;0,0;False;False;False;2,4319999218;True;0,829999923706
SRA1971w;game;2017-03-24-09-08-10;9,0;25,0;100;0,0;3,0;1,0;2,0;column;0,0;False;False;False;1,63400006294;True;0,96799993515
SRA1971w;game;2017-03-24-09-08-10;9,0;26,0;100;0,0;2,0;1,0;3,0;column;0,0;True;False;True;0,799999952316;True;1,36100006104
SRA1971w;game;2017-03-24-09-08-10;9,0;27,0;100;0,0;1,0;2,0;3,0;row;0,0;False;True;False;1,93299984932;True;1,19499993324
SRA1971w;game;2017-03-24-09-08-10;9,0;28,0;100;1,0;0,0;2,0;3,0;column;0,0;False;True;False;1,86500000954;True;1,43099999428
SRA1971w;game;2017-03-24-09-08-10;9,0;29,0;100;2,0;0,0;3,0;1,0;row;1,0;False;False;False;1,83399987221;True;1,22799992561
SRA1971w;game;2017-03-24-09-08-10;9,0;30,0;100;3,0;2,0;1,0;0,0;column;1,0;False;False;False;1,96599984169;True;0,826999902725
SRA1971w;game;2017-03-24-09-08-10;9,0;31,0;100;3,0;0,0;2,0;1,0;column;1,0;False;False;False;1,86599993706;True;0,801000118256
SRA1971w;game;2017-03-24-09-08-10;9,0;32,0;100;1,0;3,0;0,0;2,0;column;0,0;False;False;False;1,43200016022;True;0,758000135422
SRA1971w;game;2017-03-24-09-08-10;9,0;33,0;100;2,0;3,0;1,0;0,0;column;1,0;False;False;False;1,96799993515;True;1,1369998455
SRA1971w;game;2017-03-24-09-08-10;9,0;34,0;100;0,0;2,0;3,0;1,0;column;0,0;True;False;True;0,799999952316;True;1,39499998093
SRA1971w;game;2017-03-24-09-08-10;9,0;35,0;100;0,0;1,0;3,0;2,0;column;1,0;True;True;True;1,53299999237;True;1,16499996185
SRA1971w;game;2017-03-24-09-08-10;9,0;36,0;100;0,0;2,0;3,0;1,0;row;1,0;True;True;False;1,76700019836;False;1,19899988174
SRA1971w;game;2017-03-24-09-08-10;9,0;37,0;100;2,0;1,0;0,0;3,0;column;0,0;True;False;False;2,46700000763;False;1,49800014496
SRA1971w;game;2017-03-24-09-08-10;9,0;38,0;100;1,0;0,0;2,0;3,0;row;1,0;False;False;False;1,76300001144;True;0,531000137329
SRA1971w;game;2017-03-24-09-08-10;9,0;39,0;100;3,0;2,0;0,0;1,0;row;0,0;True;False;True;0,766999959946;True;1,23599982262
SRA1971w;game;2017-03-24-09-08-10;9,0;40,0;100;1,0;3,0;2,0;0,0;column;1,0;False;True;False;1,29999995232;True;1,42300009727
SRA1971w;game;2017-03-24-09-08-10;9,0;41,0;100;2,0;3,0;0,0;1,0;column;1,0;True;False;True;1,73300004005;True;0,594999790192
SRA1971w;game;2017-03-24-09-08-10;9,0;42,0;100;2,0;1,0;3,0;0,0;row;1,0;False;False;False;2,03199982643;True;1,36199998856
SRA1971w;game;2017-03-24-09-08-10;9,0;43,0;100;0,0;2,0;3,0;1,0;row;0,0;False;True;False;1,76699995995;True;1,29799985886
SRA1971w;game;2017-03-24-09-08-10;9,0;44,0;100;1,0;3,0;2,0;0,0;row;1,0;True;False;True;1,50099992752;True;1,25699996948
SRA1971w;game;2017-03-24-09-08-10;9,0;45,0;100;1,0;3,0;2,0;0,0;column;1,0;True;True;True;1,03299999237;True;0,924000024796
SRA1971w;game;2017-03-24-09-08-10;9,0;46,0;100;0,0;2,0;1,0;3,0;row;1,0;False;True;False;1,59999990463;True;0,595999956131
SRA1971w;game;2017-03-24-09-08-10;9,0;47,0;100;1,0;3,0;0,0;2,0;row;1,0;False;True;False;1,76600003242;True;1,06299996376
SRA1971w;game;2017-03-24-09-08-10;9,0;48,0;100;1,0;0,0;3,0;2,0;row;0,0;True;False;True;0,700999975204;True;1,09400010109
SRA1971w;game;2017-03-24-09-08-10;10,0;1,0;-100;1,0;3,0;0,0;2,0;row;0,0;True;True;True;1,88400006294;True;0,625999927521
SRA1971w;game;2017-03-24-09-08-10;10,0;2,0;-100;1,0;0,0;3,0;2,0;column;1,0;False;False;False;1,51600003242;True;0,658999919891
SRA1971w;game;2017-03-24-09-08-10;10,0;3,0;-100;0,0;3,0;1,0;2,0;row;0,0;False;False;False;1,382999897;True;0,695999860764
SRA1971w;game;2017-03-24-09-08-10;10,0;4,0;-100;1,0;0,0;3,0;2,0;row;1,0;True;True;True;1,45000004768;True;1,36299991608
SRA1971w;game;2017-03-24-09-08-10;10,0;5,0;-100;3,0;2,0;1,0;0,0;row;0,0;False;True;False;1,31599998474;True;0,631000041962
SRA1971w;game;2017-03-24-09-08-10;10,0;6,0;-100;1,0;3,0;2,0;0,0;column;0,0;True;True;True;1,51400017738;True;0,863999843597
SRA1971w;game;2017-03-24-09-08-10;10,0;7,0;-100;3,0;2,0;0,0;1,0;row;1,0;True;False;True;1,21799993515;True;1,23200011253
SRA1971w;game;2017-03-24-09-08-10;10,0;8,0;-100;0,0;3,0;2,0;1,0;row;1,0;True;False;True;2,617000103;True;0,697000026703
SRA1971w;game;2017-03-24-09-08-10;10,0;9,0;-100;2,0;3,0;1,0;0,0;row;1,0;True;False;True;1,68300008774;True;0,628999948502
SRA1971w;game;2017-03-24-09-08-10;10,0;10,0;-100;1,0;3,0;2,0;0,0;row;0,0;False;True;False;1,58400011063;True;1,47200012207
SRA1971w;game;2017-03-24-09-08-10;10,0;11,0;-100;1,0;3,0;2,0;0,0;column;0,0;False;False;False;1,3180000782;True;1,46700000763
SRA1971w;game;2017-03-24-09-08-10;10,0;12,0;-100;0,0;3,0;1,0;2,0;column;1,0;False;False;False;1,61599993706;True;1,46499991417
SRA1971w;game;2017-03-24-09-08-10;10,0;13,0;-100;0,0;1,0;2,0;3,0;row;1,0;True;False;True;1,25;True;1,13300013542
SRA1971w;game;2017-03-24-09-08-10;10,0;14,0;-100;3,0;0,0;1,0;2,0;row;0,0;True;True;True;0,883999824524;True;1,20000004768
SRA1971w;game;2017-03-24-09-08-10;10,0;15,0;-100;0,0;3,0;1,0;2,0;column;1,0;True;False;False;1,74799990654;False;1,46399998665
SRA1971w;game;2017-03-24-09-08-10;10,0;16,0;-100;3,0;0,0;1,0;2,0;row;1,0;False;False;False;2,51699995995;True;0,757999897003
SRA1971w;game;2017-03-24-09-08-10;10,0;17,0;-100;0,0;1,0;2,0;3,0;column;0,0;True;False;True;0,717000007629;True;0,871000051498
SRA1971w;game;2017-03-24-09-08-10;10,0;18,0;-100;3,0;0,0;1,0;2,0;column;1,0;True;False;True;1,51699995995;True;0,903000116348
SRA1971w;game;2017-03-24-09-08-10;10,0;19,0;-100;2,0;1,0;3,0;0,0;row;0,0;True;False;True;0,985000133514;True;1,10199999809
SRA1971w;game;2017-03-24-09-08-10;10,0;20,0;-100;2,0;0,0;1,0;3,0;column;0,0;False;True;False;1,68300008774;True;1,29200005531
SRA1971w;game;2017-03-24-09-08-10;10,0;21,0;-100;2,0;0,0;3,0;1,0;row;1,0;True;True;True;1,11599993706;True;0,774000167847
SRA1971w;game;2017-03-24-09-08-10;10,0;22,0;-100;0,0;3,0;2,0;1,0;column;1,0;False;False;False;2,01699995995;True;0,59299993515
SRA1971w;game;2017-03-24-09-08-10;10,0;23,0;-100;2,0;1,0;0,0;3,0;column;1,0;True;False;False;1,51600003242;False;0,868000030518
SRA1971w;game;2017-03-24-09-08-10;10,0;24,0;-100;3,0;2,0;1,0;0,0;row;1,0;False;True;False;1,78199982643;True;1,32800006866
SRA1971w;game;2017-03-24-09-08-10;10,0;25,0;-100;1,0;0,0;3,0;2,0;column;0,0;True;True;True;1,48099994659;True;1,0569999218
SRA1971w;game;2017-03-24-09-08-10;10,0;26,0;-100;0,0;3,0;2,0;1,0;row;0,0;False;False;False;1,38400006294;True;0,724999904633
SRA1971w;game;2017-03-24-09-08-10;10,0;27,0;-100;1,0;2,0;3,0;0,0;row;1,0;False;False;False;1,88400006294;True;1,16900014877
SRA1971w;game;2017-03-24-09-08-10;10,0;28,0;-100;1,0;0,0;2,0;3,0;column;1,0;False;False;False;1,45000004768;True;1,36599993706
SRA1971w;game;2017-03-24-09-08-10;10,0;29,0;-100;3,0;2,0;0,0;1,0;column;0,0;False;False;False;1,68200016022;True;0,861999988556
SRA1971w;game;2017-03-24-09-08-10;10,0;30,0;-100;3,0;0,0;2,0;1,0;row;1,0;False;False;False;1,58299994469;True;0,891000032425
SRA1971w;game;2017-03-24-09-08-10;10,0;31,0;-100;2,0;3,0;0,0;1,0;row;0,0;True;True;True;1,64700007439;True;0,934000015259
SRA1971w;game;2017-03-24-09-08-10;10,0;32,0;-100;2,0;0,0;1,0;3,0;column;1,0;True;True;True;1,61699986458;True;1,23399996758
SRA1971w;game;2017-03-24-09-08-10;10,0;33,0;-100;2,0;0,0;1,0;3,0;row;0,0;False;True;False;1,58399987221;True;1,13199996948
SRA1971w;game;2017-03-24-09-08-10;10,0;34,0;-100;1,0;3,0;0,0;2,0;column;0,0;False;True;False;1,74900007248;True;1,23799991608
SRA1971w;game;2017-03-24-09-08-10;10,0;35,0;-100;1,0;2,0;3,0;0,0;column;1,0;True;True;False;2,65099978447;False;0,862000226974
SRA1971w;game;2017-03-24-09-08-10;10,0;36,0;-100;2,0;1,0;3,0;0,0;row;1,0;True;False;True;1,08299994469;True;0,904000043869
SRA1971w;game;2017-03-24-09-08-10;10,0;37,0;-100;3,0;0,0;2,0;1,0;row;0,0;True;False;True;0,947999954224;True;1,45899987221
SRA1971w;game;2017-03-24-09-08-10;10,0;38,0;-100;0,0;2,0;1,0;3,0;row;1,0;True;True;True;2,41599988937;True;1,19899988174
SRA1971w;game;2017-03-24-09-08-10;10,0;39,0;-100;1,0;0,0;3,0;2,0;column;1,0;True;True;True;1,48399996758;True;0,5640001297
SRA1971w;game;2017-03-24-09-08-10;10,0;40,0;-100;0,0;3,0;2,0;1,0;row;1,0;False;False;False;1,78199982643;True;0,529000043869
SRA1971w;game;2017-03-24-09-08-10;10,0;41,0;-100;3,0;0,0;2,0;1,0;column;1,0;True;True;True;1,88300013542;True;0,590000152588
SRA1971w;game;2017-03-24-09-08-10;10,0;42,0;-100;1,0;3,0;2,0;0,0;row;1,0;False;False;False;1,81599998474;True;0,992000102997
SRA1971w;game;2017-03-24-09-08-10;10,0;43,0;-100;0,0;3,0;1,0;2,0;row;0,0;True;False;True;0,948000192642;True;1,09999990463
SRA1971w;game;2017-03-24-09-08-10;10,0;44,0;-100;1,0;2,0;0,0;3,0;column;1,0;True;False;True;1,48799991608;True;1,40299987793
SRA1971w;game;2017-03-24-09-08-10;10,0;45,0;-100;3,0;0,0;1,0;2,0;column;0,0;True;True;True;1,28299999237;True;0,568000078201
SRA1971w;game;2017-03-24-09-08-10;10,0;46,0;-100;1,0;0,0;3,0;2,0;column;0,0;False;True;False;1,98400020599;True;0,766000032425
SRA1971w;game;2017-03-24-09-08-10;10,0;47,0;-100;3,0;0,0;1,0;2,0;row;0,0;False;False;False;1,94899988174;True;1,26600003242
SRA1971w;game;2017-03-24-09-08-10;10,0;48,0;-100;2,0;0,0;1,0;3,0;column;1,0;False;True;False;1,28400015831;True;1,06699991226
SRA1971w;game;2017-03-24-09-08-10;11,0;1,0;100;2,0;1,0;0,0;3,0;row;0,0;False;False;False;1,59999990463;True;1,17000007629
SRA1971w;game;2017-03-24-09-08-10;11,0;2,0;100;2,0;1,0;0,0;3,0;column;1,0;False;False;False;1,59800004959;True;0,759999990463
SRA1971w;game;2017-03-24-09-08-10;11,0;3,0;100;1,0;2,0;3,0;0,0;row;1,0;True;True;True;0,800000190735;True;0,624000072479
SRA1971w;game;2017-03-24-09-08-10;11,0;4,0;100;0,0;3,0;2,0;1,0;column;1,0;True;True;True;0,899999856949;True;0,696000099182
SRA1971w;game;2017-03-24-09-08-10;11,0;5,0;100;1,0;3,0;2,0;0,0;row;0,0;False;False;False;1,49900007248;True;1,23199987411
SRA1971w;game;2017-03-24-09-08-10;11,0;6,0;100;3,0;1,0;2,0;0,0;column;1,0;True;False;True;1,7009999752;True;0,524000167847
SRA1971w;game;2017-03-24-09-08-10;11,0;7,0;100;1,0;2,0;0,0;3,0;column;1,0;True;True;False;2,03299999237;False;0,861000061035
SRA1971w;game;2017-03-24-09-08-10;11,0;8,0;100;1,0;0,0;3,0;2,0;row;1,0;False;False;False;1,06699991226;True;0,655999898911
SRA1971w;game;2017-03-24-09-08-10;11,0;9,0;100;2,0;3,0;0,0;1,0;column;1,0;False;False;False;1,63199996948;True;0,828000068665
SRA1971w;game;2017-03-24-09-08-10;11,0;10,0;100;3,0;1,0;2,0;0,0;column;0,0;False;False;False;1,39999985695;True;0,700999975204
SRA1971w;game;2017-03-24-09-08-10;11,0;11,0;100;0,0;1,0;2,0;3,0;row;0,0;True;False;True;1,09999990463;True;0,728000164032
SRA1971w;game;2017-03-24-09-08-10;11,0;12,0;100;3,0;0,0;1,0;2,0;row;0,0;True;False;True;0,632999897003;True;1,32299995422
SRA1971w;game;2017-03-24-09-08-10;11,0;13,0;100;0,0;3,0;2,0;1,0;row;1,0;True;False;True;2,90000009537;True;0,734999895096
SRA1971w;game;2017-03-24-09-08-10;11,0;14,0;100;2,0;1,0;0,0;3,0;column;0,0;False;True;False;1,76699995995;True;0,731999874115
SRA1971w;game;2017-03-24-09-08-10;11,0;15,0;100;3,0;2,0;1,0;0,0;column;0,0;True;False;True;0,834000110626;True;0,601000070572
SRA1971w;game;2017-03-24-09-08-10;11,0;16,0;100;1,0;0,0;3,0;2,0;column;0,0;True;False;True;1,70000004768;True;1,36999988556
SRA1971w;game;2017-03-24-09-08-10;11,0;17,0;100;2,0;0,0;3,0;1,0;column;0,0;False;True;False;1,33400011063;True;1,25999999046
SRA1971w;game;2017-03-24-09-08-10;11,0;18,0;100;2,0;1,0;0,0;3,0;row;0,0;True;False;True;0,667000055313;True;1,30399990082
SRA1971w;game;2017-03-24-09-08-10;11,0;19,0;100;0,0;1,0;3,0;2,0;column;0,0;False;False;False;1,36599993706;True;0,566999912262
SRA1971w;game;2017-03-24-09-08-10;11,0;20,0;100;3,0;1,0;0,0;2,0;column;1,0;True;False;True;1,26600003242;True;1,46000003815
SRA1971w;game;2017-03-24-09-08-10;11,0;21,0;100;1,0;0,0;3,0;2,0;row;0,0;False;False;True;1,86599993706;False;1,37000012398
SRA1971w;game;2017-03-24-09-08-10;11,0;22,0;100;3,0;2,0;0,0;1,0;row;1,0;True;False;True;1,2990000248;True;1,39800000191
SRA1971w;game;2017-03-24-09-08-10;11,0;23,0;100;0,0;3,0;1,0;2,0;column;1,0;True;False;True;1,16700005531;True;0,588999986649
SRA1971w;game;2017-03-24-09-08-10;11,0;24,0;100;2,0;0,0;3,0;1,0;column;1,0;True;True;True;1,53299999237;True;1,09200000763
SRA1971w;game;2017-03-24-09-08-10;11,0;25,0;100;0,0;2,0;3,0;1,0;column;0,0;False;True;False;1,59999990463;True;0,796000003815
SRA1971w;game;2017-03-24-09-08-10;11,0;26,0;100;2,0;3,0;1,0;0,0;row;1,0;True;False;True;1,36599993706;True;0,56299996376
SRA1971w;game;2017-03-24-09-08-10;11,0;27,0;100;0,0;3,0;1,0;2,0;row;0,0;True;False;True;1,60100007057;True;1,3639998436
SRA1971w;game;2017-03-24-09-08-10;11,0;28,0;100;0,0;3,0;2,0;1,0;row;1,0;False;False;False;1,73399996758;True;0,571000099182
SRA1971w;game;2017-03-24-09-08-10;11,0;29,0;100;2,0;0,0;1,0;3,0;row;1,0;False;False;False;2,06700015068;True;0,860999822617
SRA1971w;game;2017-03-24-09-08-10;11,0;30,0;100;3,0;2,0;1,0;0,0;row;1,0;False;False;False;1,632999897;True;1,49300003052
SRA1971w;game;2017-03-24-09-08-10;11,0;31,0;100;2,0;1,0;3,0;0,0;column;0,0;True;False;True;1,20000004768;True;1,09999990463
SRA1971w;game;2017-03-24-09-08-10;11,0;32,0;100;2,0;3,0;0,0;1,0;column;0,0;False;False;False;1,33299994469;True;1,26399993896
SRA1971w;game;2017-03-24-09-08-10;11,0;33,0;100;3,0;1,0;0,0;2,0;column;0,0;True;True;True;1,39999985695;True;0,631999969482
SRA1971w;game;2017-03-24-09-08-10;11,0;34,0;100;1,0;0,0;2,0;3,0;row;0,0;True;False;True;0,867000102997;True;0,528000116348
SRA1971w;game;2017-03-24-09-08-10;11,0;35,0;100;1,0;3,0;0,0;2,0;row;0,0;False;True;False;1,96799993515;True;0,862999916077
SRA1971w;game;2017-03-24-09-08-10;11,0;36,0;100;3,0;0,0;2,0;1,0;row;0,0;True;False;True;0,632999897003;True;1,0039999485
SRA1971w;game;2017-03-24-09-08-10;11,0;37,0;100;3,0;2,0;0,0;1,0;column;1,0;False;False;False;1,79999995232;True;0,598000049591
SRA1971w;game;2017-03-24-09-08-10;11,0;38,0;100;3,0;2,0;1,0;0,0;column;0,0;False;False;False;1,49899983406;True;0,861000061035
SRA1971w;game;2017-03-24-09-08-10;11,0;39,0;100;0,0;1,0;2,0;3,0;column;1,0;False;False;False;1,43300008774;True;0,664999961853
SRA1971w;game;2017-03-24-09-08-10;11,0;40,0;100;1,0;2,0;0,0;3,0;column;0,0;True;False;True;0,799000024796;True;1,29600000381
SRA1971w;game;2017-03-24-09-08-10;11,0;41,0;100;1,0;2,0;0,0;3,0;row;0,0;True;True;True;2,70000004768;True;1,46900010109
SRA1971w;game;2017-03-24-09-08-10;11,0;42,0;100;2,0;3,0;1,0;0,0;row;0,0;True;True;True;1,93099999428;True;0,904000043869
SRA1971w;game;2017-03-24-09-08-10;11,0;43,0;100;0,0;3,0;1,0;2,0;column;0,0;True;True;True;1,29999995232;True;1,16599988937
SRA1971w;game;2017-03-24-09-08-10;11,0;44,0;100;0,0;3,0;1,0;2,0;column;1,0;False;True;False;1,53299999237;True;0,730000019073
SRA1971w;game;2017-03-24-09-08-10;11,0;45,0;100;3,0;1,0;2,0;0,0;row;0,0;True;True;True;1,90000009537;True;0,963999986649
SRA1971w;game;2017-03-24-09-08-10;11,0;46,0;100;0,0;2,0;3,0;1,0;row;1,0;False;False;False;2,26600003242;True;0,596999883652
SRA1971w;game;2017-03-24-09-08-10;11,0;47,0;100;1,0;2,0;3,0;0,0;column;0,0;False;True;False;1,29999995232;True;1,43099999428
SRA1971w;game;2017-03-24-09-08-10;11,0;48,0;100;0,0;2,0;3,0;1,0;row;0,0;True;False;True;0,733999967575;True;1,10199999809
SRA1971w;game;2017-03-24-09-08-10;12,0;1,0;1000;2,0;1,0;0,0;3,0;column;0,0;False;True;False;1,03399991989;True;0,940999984741
SRA1971w;game;2017-03-24-09-08-10;12,0;2,0;1000;1,0;2,0;0,0;3,0;column;1,0;True;False;True;1,30100011826;True;1,16299986839
SRA1971w;game;2017-03-24-09-08-10;12,0;3,0;1000;2,0;3,0;0,0;1,0;column;1,0;True;False;True;1,132999897;True;1,12600016594
SRA1971w;game;2017-03-24-09-08-10;12,0;4,0;1000;0,0;2,0;1,0;3,0;column;1,0;False;False;False;1,83299994469;True;0,626000165939
SRA1971w;game;2017-03-24-09-08-10;12,0;5,0;1000;2,0;3,0;1,0;0,0;column;0,0;False;True;True;3,33299994469;False;1,30599999428
SRA1971w;game;2017-03-24-09-08-10;12,0;6,0;1000;3,0;2,0;0,0;1,0;row;0,0;True;False;True;0,966999769211;True;1,1369998455
SRA1971w;game;2017-03-24-09-08-10;12,0;7,0;1000;1,0;3,0;0,0;2,0;column;1,0;True;True;False;1,73200011253;False;1,43600010872
SRA1971w;game;2017-03-24-09-08-10;12,0;8,0;1000;2,0;3,0;1,0;0,0;row;0,0;True;False;True;1,132999897;True;0,663000106812
SRA1971w;game;2017-03-24-09-08-10;12,0;9,0;1000;1,0;2,0;3,0;0,0;column;1,0;False;True;False;2,36600017548;True;0,893000125885
SRA1971w;game;2017-03-24-09-08-10;12,0;10,0;1000;3,0;0,0;2,0;1,0;row;0,0;True;True;True;2,4319999218;True;0,827000141144
SRA1971w;game;2017-03-24-09-08-10;12,0;11,0;1000;3,0;1,0;0,0;2,0;row;1,0;True;False;True;1,46700000763;True;1,26699995995
SRA1971w;game;2017-03-24-09-08-10;12,0;12,0;1000;3,0;2,0;0,0;1,0;row;1,0;False;False;False;1,56699991226;True;0,601000070572
SRA1971w;game;2017-03-24-09-08-10;12,0;13,0;1000;3,0;1,0;2,0;0,0;column;1,0;True;False;True;1,56500005722;True;1,03000020981
SRA1971w;game;2017-03-24-09-08-10;12,0;14,0;1000;1,0;2,0;0,0;3,0;row;1,0;True;False;False;1,73299980164;False;0,700000047684
SRA1971w;game;2017-03-24-09-08-10;12,0;15,0;1000;2,0;3,0;1,0;0,0;column;0,0;True;False;True;0,799000024796;True;1,06900000572
SRA1971w;game;2017-03-24-09-08-10;12,0;16,0;1000;1,0;2,0;0,0;3,0;column;0,0;True;False;True;0,933000087738;True;1,132999897
SRA1971w;game;2017-03-24-09-08-10;12,0;17,0;1000;0,0;2,0;1,0;3,0;row;0,0;True;True;True;1,53099989891;True;0,833000183105
SRA1971w;game;2017-03-24-09-08-10;12,0;18,0;1000;2,0;1,0;3,0;0,0;column;0,0;False;True;False;1,46700000763;True;0,925000190735
SRA1971w;game;2017-03-24-09-08-10;12,0;19,0;1000;1,0;2,0;3,0;0,0;column;0,0;True;False;True;0,866000175476;True;1,50200009346
SRA1971w;game;2017-03-24-09-08-10;12,0;20,0;1000;0,0;3,0;2,0;1,0;row;1,0;True;True;True;2,40000009537;True;0,605000019073
SRA1971w;game;2017-03-24-09-08-10;12,0;21,0;1000;0,0;1,0;2,0;3,0;column;0,0;True;True;True;1,03299999237;True;0,62900018692
SRA1971w;game;2017-03-24-09-08-10;12,0;22,0;1000;3,0;1,0;0,0;2,0;row;1,0;False;True;True;2,43300008774;False;1,43300008774
SRA1971w;game;2017-03-24-09-08-10;12,0;23,0;1000;2,0;1,0;0,0;3,0;row;0,0;True;False;True;0,800000190735;True;1,20499992371
SRA1971w;game;2017-03-24-09-08-10;12,0;24,0;1000;0,0;3,0;1,0;2,0;column;1,0;True;True;True;0,834000110626;True;1,23699998856
SRA1971w;game;2017-03-24-09-08-10;12,0;25,0;1000;1,0;0,0;3,0;2,0;column;1,0;False;True;False;1,7009999752;True;1,09200000763
SRA1971w;game;2017-03-24-09-08-10;12,0;26,0;1000;3,0;2,0;0,0;1,0;column;1,0;True;True;True;0,766999959946;True;0,957000017166
SRA1971w;game;2017-03-24-09-08-10;12,0;27,0;1000;2,0;3,0;1,0;0,0;row;1,0;False;True;False;2,96700000763;True;0,703999996185
SRA1971w;game;2017-03-24-09-08-10;12,0;28,0;1000;3,0;1,0;2,0;0,0;column;1,0;False;False;False;1,70000004768;True;1,39499998093
SRA1971w;game;2017-03-24-09-08-10;12,0;29,0;1000;3,0;1,0;0,0;2,0;column;1,0;False;False;False;1,867000103;True;1,43899989128
SRA1971w;game;2017-03-24-09-08-10;12,0;30,0;1000;1,0;3,0;2,0;0,0;column;0,0;True;False;True;0,93499994278;True;0,5640001297
SRA1971w;game;2017-03-24-09-08-10;12,0;31,0;1000;0,0;2,0;1,0;3,0;row;0,0;False;True;False;2,03400015831;True;0,869000196457
SRA1971w;game;2017-03-24-09-08-10;12,0;32,0;1000;3,0;2,0;1,0;0,0;row;0,0;True;False;True;0,932999849319;True;1,33500003815
SRA1971w;game;2017-03-24-09-08-10;12,0;33,0;1000;0,0;1,0;2,0;3,0;column;1,0;False;False;False;2,26700019836;True;1,49699997902
SRA1971w;game;2017-03-24-09-08-10;12,0;34,0;1000;2,0;3,0;1,0;0,0;row;0,0;False;True;False;1,73300004005;True;1,03299999237
SRA1971w;game;2017-03-24-09-08-10;12,0;35,0;1000;0,0;3,0;1,0;2,0;row;1,0;False;True;False;3,09999990463;True;0,52999997139
SRA1971w;game;2017-03-24-09-08-10;12,0;36,0;1000;3,0;0,0;2,0;1,0;column;1,0;True;True;True;1,59800004959;True;0,931999921799
SRA1971w;game;2017-03-24-09-08-10;12,0;37,0;1000;3,0;2,0;1,0;0,0;row;0,0;False;True;False;1,90000009537;True;0,832999944687
SRA1971w;game;2017-03-24-09-08-10;12,0;38,0;1000;2,0;0,0;1,0;3,0;column;1,0;True;True;True;2,56700015068;True;0,767999887466
SRA1971w;game;2017-03-24-09-08-10;12,0;39,0;1000;2,0;0,0;3,0;1,0;column;0,0;True;True;True;1,40100002289;True;1,23600006104
SRA1971w;game;2017-03-24-09-08-10;12,0;40,0;1000;1,0;3,0;0,0;2,0;column;0,0;False;False;False;1,96600008011;True;0,536999940872
SRA1971w;game;2017-03-24-09-08-10;12,0;41,0;1000;1,0;3,0;2,0;0,0;row;1,0;True;False;True;1,56699991226;True;1,49599981308
SRA1971w;game;2017-03-24-09-08-10;12,0;42,0;1000;1,0;0,0;3,0;2,0;row;1,0;False;True;False;2,66799998283;True;0,729000091553
SRA1971w;game;2017-03-24-09-08-10;12,0;43,0;1000;1,0;2,0;0,0;3,0;row;0,0;False;True;False;1,87299990654;True;1,46600008011
SRA1971w;game;2017-03-24-09-08-10;12,0;44,0;1000;3,0;2,0;1,0;0,0;row;1,0;True;True;True;0,934000015259;True;1,32400012016
SRA1971w;game;2017-03-24-09-08-10;12,0;45,0;1000;3,0;2,0;0,0;1,0;row;0,0;False;True;False;1,73199987411;True;0,792999982834
SRA1971w;game;2017-03-24-09-08-10;12,0;46,0;1000;3,0;2,0;1,0;0,0;column;0,0;True;False;True;0,934000015259;True;1,45999979973
SRA1971w;game;2017-03-24-09-08-10;12,0;47,0;1000;2,0;1,0;3,0;0,0;row;0,0;True;True;True;1,49699997902;True;0,756999969482
SRA1971w;game;2017-03-24-09-08-10;12,0;48,0;1000;3,0;0,0;1,0;2,0;column;1,0;False;True;False;1,86599993706;True;0,698999881744
