Observer;Condition;SessionID;Block;Trial;COA;Color0;Color1;Color2;Color3;Target;Which;Match;FlipComplimentary;Response;RT;Correct;OnsetDelay
SSF1993w;game;2017-02-02-10-44-25;1,0;1,0;-100;2,0;0,0;3,0;1,0;column;1,0;False;False;False;3,71399998665;True;0,990000009537
SSF1993w;game;2017-02-02-10-44-25;1,0;2,0;-100;0,0;3,0;2,0;1,0;column;1,0;False;False;True;2,81700015068;False;1,49699997902
SSF1993w;game;2017-02-02-10-44-25;1,0;3,0;-100;1,0;0,0;3,0;2,0;column;1,0;True;False;False;3,78200006485;False;0,898000001907
SSF1993w;game;2017-02-02-10-44-25;1,0;4,0;-100;0,0;2,0;3,0;1,0;column;1,0;False;False;True;1,44999980927;False;1,43200016022
SSF1993w;game;2017-02-02-10-44-25;1,0;5,0;-100;0,0;1,0;2,0;3,0;row;0,0;False;False;False;4,61599993706;True;0,763000011444
SSF1993w;game;2017-02-02-10-44-25;1,0;6,0;-100;1,0;2,0;3,0;0,0;column;0,0;True;False;False;6,42399978638;False;0,925999879837
SSF1993w;game;2017-02-02-10-44-25;1,0;7,0;-100;0,0;2,0;3,0;1,0;row;0,0;False;False;True;2,43499994278;False;0,532999992371
SSF1993w;game;2017-02-02-10-44-25;1,0;8,0;-100;3,0;0,0;1,0;2,0;column;1,0;False;True;False;3,98099994659;True;1,45900011063
SSF1993w;game;2017-02-02-10-44-25;1,0;9,0;-100;2,0;1,0;0,0;3,0;column;0,0;False;True;True;1,9470000267;False;1,09800004959
SSF1993w;game;2017-02-02-10-44-25;1,0;10,0;-100;3,0;1,0;2,0;0,0;column;1,0;False;True;False;2,38400006294;True;0,789999961853
SSF1993w;game;2017-02-02-10-44-25;1,0;11,0;-100;3,0;1,0;2,0;0,0;column;0,0;True;False;False;2,21700000763;False;1,00600004196
SSF1993w;game;2017-02-02-10-44-25;1,0;12,0;-100;2,0;0,0;3,0;1,0;row;1,0;False;True;False;2,61899995804;True;0,97000002861
SSF1993w;game;2017-02-02-10-44-25;1,0;13,0;-100;3,0;2,0;1,0;0,0;column;0,0;False;False;False;7,21399998665;True;0,626999855042
SSF1993w;game;2017-02-02-10-44-25;1,0;14,0;-100;3,0;2,0;1,0;0,0;column;1,0;False;False;False;2,01699995995;True;1,20599985123
SSF1993w;game;2017-02-02-10-44-25;1,0;15,0;-100;2,0;1,0;3,0;0,0;column;1,0;False;False;False;1,35000014305;True;0,966000080109
SSF1993w;game;2017-02-02-10-44-25;1,0;16,0;-100;1,0;2,0;0,0;3,0;column;0,0;False;True;False;1,25;True;1,29800009727
SSF1993w;game;2017-02-02-10-44-25;1,0;17,0;-100;3,0;2,0;1,0;0,0;row;0,0;True;False;True;1,84899997711;True;0,968999862671
SSF1993w;game;2017-02-02-10-44-25;1,0;18,0;-100;0,0;2,0;1,0;3,0;row;0,0;False;True;True;2,38199996948;False;1,19600009918
SSF1993w;game;2017-02-02-10-44-25;1,0;19,0;-100;3,0;2,0;1,0;0,0;row;0,0;False;False;False;1,65000009537;True;0,994999885559
SSF1993w;game;2017-02-02-10-44-25;1,0;20,0;-100;1,0;3,0;2,0;0,0;column;1,0;False;False;False;1,01699995995;True;0,963000059128
SSF1993w;game;2017-02-02-10-44-25;1,0;21,0;-100;0,0;1,0;3,0;2,0;column;1,0;True;False;False;1,04999995232;False;0,705000162125
SSF1993w;game;2017-02-02-10-44-25;1,0;22,0;-100;1,0;0,0;3,0;2,0;row;0,0;True;True;True;1,84800004959;True;1,29699993134
SSF1993w;game;2017-02-02-10-44-25;1,0;23,0;-100;2,0;3,0;1,0;0,0;row;0,0;False;True;False;1,01699995995;True;1,33800005913
SSF1993w;game;2017-02-02-10-44-25;1,0;24,0;-100;2,0;3,0;1,0;0,0;column;1,0;False;True;False;1,15000009537;True;0,733000040054
SSF1993w;game;2017-02-02-10-44-25;1,0;25,0;-100;3,0;0,0;1,0;2,0;column;0,0;False;True;False;1,44699978828;True;0,834999799728
SSF1993w;game;2017-02-02-10-44-25;1,0;26,0;-100;2,0;1,0;0,0;3,0;row;1,0;False;True;False;0,881999969482;True;0,998000144958
SSF1993w;game;2017-02-02-10-44-25;1,0;27,0;-100;1,0;3,0;0,0;2,0;column;0,0;True;True;False;1,08200001717;False;0,699000120163
SSF1993w;game;2017-02-02-10-44-25;1,0;28,0;-100;0,0;3,0;2,0;1,0;column;1,0;True;True;False;1,11599993706;False;1,49399995804
SSF1993w;game;2017-02-02-10-44-25;1,0;29,0;-100;1,0;2,0;3,0;0,0;column;1,0;True;True;True;3,11500000954;True;0,865000009537
SSF1993w;game;2017-02-02-10-44-25;1,0;30,0;-100;3,0;0,0;1,0;2,0;row;1,0;True;True;False;1,11699986458;False;1,49300003052
SSF1993w;game;2017-02-02-10-44-25;1,0;31,0;-100;1,0;0,0;3,0;2,0;row;0,0;False;False;False;0,983000040054;True;0,768000125885
SSF1993w;game;2017-02-02-10-44-25;1,0;32,0;-100;0,0;1,0;3,0;2,0;row;0,0;False;False;False;1,21700000763;True;1,49800014496
SSF1993w;game;2017-02-02-10-44-25;1,0;33,0;-100;3,0;0,0;1,0;2,0;row;1,0;False;False;True;1,382999897;False;1,06299996376
SSF1993w;game;2017-02-02-10-44-25;1,0;34,0;-100;3,0;1,0;2,0;0,0;column;0,0;False;True;False;1,18499994278;True;0,56200003624
SSF1993w;game;2017-02-02-10-44-25;1,0;35,0;-100;0,0;1,0;2,0;3,0;row;1,0;False;True;False;1,25;True;1,49599981308
SSF1993w;game;2017-02-02-10-44-25;1,0;36,0;-100;2,0;0,0;1,0;3,0;row;1,0;True;True;False;3,08200001717;False;1,03200006485
SSF1993w;game;2017-02-02-10-44-25;1,0;37,0;-100;2,0;3,0;0,0;1,0;row;0,0;False;True;False;1,14900016785;True;1,26899981499
SSF1993w;game;2017-02-02-10-44-25;1,0;38,0;-100;3,0;2,0;0,0;1,0;column;1,0;False;True;False;1,58400011063;True;1,09200000763
SSF1993w;game;2017-02-02-10-44-25;1,0;39,0;-100;1,0;3,0;2,0;0,0;column;0,0;False;False;False;1,04800009727;True;1,09899997711
SSF1993w;game;2017-02-02-10-44-25;1,0;40,0;-100;1,0;2,0;0,0;3,0;column;1,0;False;True;False;1,14900016785;True;1,0
SSF1993w;game;2017-02-02-10-44-25;1,0;41,0;-100;1,0;3,0;0,0;2,0;row;0,0;False;True;False;3,11299991608;True;1,00400018692
SSF1993w;game;2017-02-02-10-44-25;1,0;42,0;-100;2,0;3,0;0,0;1,0;row;0,0;True;True;True;2,0;True;0,833999872208
SSF1993w;game;2017-02-02-10-44-25;1,0;43,0;-100;1,0;2,0;3,0;0,0;column;1,0;False;False;False;2,61500000954;True;1,03399991989
SSF1993w;game;2017-02-02-10-44-25;1,0;44,0;-100;2,0;0,0;1,0;3,0;row;1,0;False;True;False;1,44799995422;True;0,904000043869
SSF1993w;game;2017-02-02-10-44-25;1,0;45,0;-100;0,0;2,0;1,0;3,0;column;0,0;True;False;True;3,0490000248;True;1,33899998665
SSF1993w;game;2017-02-02-10-44-25;1,0;46,0;-100;3,0;1,0;0,0;2,0;row;1,0;True;True;True;5,58299994469;True;0,796999931335
SSF1993w;game;2017-02-02-10-44-25;1,0;47,0;-100;2,0;0,0;3,0;1,0;column;1,0;True;True;True;4,35000014305;True;1,36500000954
SSF1993w;game;2017-02-02-10-44-25;1,0;48,0;-100;2,0;3,0;0,0;1,0;column;1,0;True;True;False;2,77900004387;False;1,29999995232
SSF1993w;game;2017-02-02-10-44-25;2,0;1,0;100;2,0;0,0;1,0;3,0;column;0,0;False;True;True;1,73200011253;False;0,99799990654
SSF1993w;game;2017-02-02-10-44-25;2,0;2,0;100;1,0;2,0;0,0;3,0;row;0,0;True;True;False;1,867000103;False;1,45700001717
SSF1993w;game;2017-02-02-10-44-25;2,0;3,0;100;2,0;1,0;3,0;0,0;row;1,0;True;True;False;1,132999897;False;1,26800012589
SSF1993w;game;2017-02-02-10-44-25;2,0;4,0;100;1,0;3,0;2,0;0,0;row;1,0;True;True;False;1,70000004768;False;0,804999828339
SSF1993w;game;2017-02-02-10-44-25;2,0;5,0;100;3,0;2,0;0,0;1,0;row;1,0;True;True;False;1,36599993706;False;1,16400003433
SSF1993w;game;2017-02-02-10-44-25;2,0;6,0;100;2,0;0,0;3,0;1,0;row;1,0;False;True;True;3,70199990273;False;0,794999837875
SSF1993w;game;2017-02-02-10-44-25;2,0;7,0;100;0,0;3,0;1,0;2,0;row;1,0;True;True;True;3,16400003433;True;1,46899986267
SSF1993w;game;2017-02-02-10-44-25;2,0;8,0;100;3,0;2,0;1,0;0,0;row;1,0;True;True;False;2,132999897;False;1,10199999809
SSF1993w;game;2017-02-02-10-44-25;2,0;9,0;100;1,0;2,0;3,0;0,0;row;0,0;False;False;False;3,76399993896;True;1,10400009155
SSF1993w;game;2017-02-02-10-44-25;2,0;10,0;100;3,0;2,0;0,0;1,0;row;0,0;True;True;False;1,92900013924;False;0,90399980545
SSF1993w;game;2017-02-02-10-44-25;2,0;11,0;100;0,0;2,0;1,0;3,0;row;1,0;True;False;False;1,63100004196;False;0,766999959946
SSF1993w;game;2017-02-02-10-44-25;2,0;12,0;100;0,0;3,0;2,0;1,0;row;1,0;True;False;False;2,63399982452;False;0,630000114441
SSF1993w;game;2017-02-02-10-44-25;2,0;13,0;100;2,0;3,0;0,0;1,0;column;1,0;True;True;False;1,99900007248;False;1,0
SSF1993w;game;2017-02-02-10-44-25;2,0;14,0;100;1,0;2,0;0,0;3,0;column;0,0;False;False;False;2,06700015068;True;0,960999965668
SSF1993w;game;2017-02-02-10-44-25;2,0;15,0;100;3,0;0,0;2,0;1,0;column;0,0;True;False;True;2,83200001717;True;1,12800002098
SSF1993w;game;2017-02-02-10-44-25;2,0;16,0;100;1,0;0,0;3,0;2,0;column;1,0;False;True;True;4,29999995232;False;1,09999990463
SSF1993w;game;2017-02-02-10-44-25;2,0;17,0;100;1,0;3,0;0,0;2,0;column;1,0;True;True;False;2,09999990463;False;0,603999853134
SSF1993w;game;2017-02-02-10-44-25;2,0;18,0;100;3,0;1,0;2,0;0,0;column;0,0;True;True;False;3,5;False;0,604000091553
SSF1993w;game;2017-02-02-10-44-25;2,0;19,0;100;3,0;1,0;0,0;2,0;column;1,0;False;True;False;2,90000009537;True;1,23000001907
SSF1993w;game;2017-02-02-10-44-25;2,0;20,0;100;2,0;1,0;3,0;0,0;row;0,0;False;False;True;4,33299994469;False;1,23699998856
SSF1993w;game;2017-02-02-10-44-25;2,0;21,0;100;0,0;3,0;2,0;1,0;row;0,0;False;False;False;2,59800004959;True;1,46599984169
SSF1993w;game;2017-02-02-10-44-25;2,0;22,0;100;2,0;0,0;3,0;1,0;column;0,0;True;False;False;3,09400010109;False;1,1970000267
SSF1993w;game;2017-02-02-10-44-25;2,0;23,0;100;3,0;2,0;0,0;1,0;row;0,0;False;False;True;2,89899992943;False;1,0680000782
SSF1993w;game;2017-02-02-10-44-25;2,0;24,0;100;0,0;2,0;3,0;1,0;row;0,0;True;True;True;4,59799981117;True;1,09900021553
SSF1993w;game;2017-02-02-10-44-25;2,0;25,0;100;0,0;1,0;2,0;3,0;column;0,0;False;False;False;3,16600012779;True;1,49500012398
SSF1993w;game;2017-02-02-10-44-25;2,0;26,0;100;3,0;0,0;1,0;2,0;column;1,0;False;True;False;2,70000004768;True;0,725000143051
SSF1993w;game;2017-02-02-10-44-25;2,0;27,0;100;1,0;0,0;3,0;2,0;column;0,0;False;False;False;2,33300018311;True;1,33300018311
SSF1993w;game;2017-02-02-10-44-25;2,0;28,0;100;1,0;2,0;3,0;0,0;column;1,0;False;True;False;3,5;True;0,801000118256
SSF1993w;game;2017-02-02-10-44-25;2,0;29,0;100;3,0;2,0;1,0;0,0;row;0,0;False;True;False;1,96600008011;True;1,23300004005
SSF1993w;game;2017-02-02-10-44-25;2,0;30,0;100;2,0;1,0;0,0;3,0;column;0,0;True;False;True;2,43400001526;True;0,697000026703
SSF1993w;game;2017-02-02-10-44-25;2,0;31,0;100;0,0;2,0;1,0;3,0;row;0,0;True;True;True;2,5;True;1,10299992561
SSF1993w;game;2017-02-02-10-44-25;2,0;32,0;100;0,0;2,0;3,0;1,0;column;0,0;True;False;True;2,66600012779;True;1,45799994469
SSF1993w;game;2017-02-02-10-44-25;2,0;33,0;100;2,0;3,0;1,0;0,0;column;0,0;True;False;True;3,46599984169;True;0,993999958038
SSF1993w;game;2017-02-02-10-44-25;2,0;34,0;100;2,0;0,0;1,0;3,0;row;0,0;False;False;False;2,40000009537;True;1,43899989128
SSF1993w;game;2017-02-02-10-44-25;2,0;35,0;100;0,0;2,0;1,0;3,0;column;0,0;True;True;True;6,76600003242;True;1,39599990845
SSF1993w;game;2017-02-02-10-44-25;2,0;36,0;100;1,0;3,0;0,0;2,0;row;0,0;False;False;False;2,16700005531;True;0,697000026703
SSF1993w;game;2017-02-02-10-44-25;2,0;37,0;100;3,0;0,0;2,0;1,0;row;0,0;False;False;True;5,53299999237;False;1,10199999809
SSF1993w;game;2017-02-02-10-44-25;2,0;38,0;100;3,0;1,0;0,0;2,0;column;0,0;False;False;False;4,26800012589;True;1,26200008392
SSF1993w;game;2017-02-02-10-44-25;2,0;39,0;100;1,0;3,0;2,0;0,0;row;1,0;False;True;False;1,66699981689;True;1,47099995613
SSF1993w;game;2017-02-02-10-44-25;2,0;40,0;100;0,0;1,0;2,0;3,0;row;1,0;False;False;False;2,86599993706;True;1,33899998665
SSF1993w;game;2017-02-02-10-44-25;2,0;41,0;100;0,0;1,0;3,0;2,0;row;0,0;False;False;False;2,73099994659;True;1,0640001297
SSF1993w;game;2017-02-02-10-44-25;2,0;42,0;100;0,0;2,0;3,0;1,0;row;1,0;False;True;True;3,60000014305;False;0,833999872208
SSF1993w;game;2017-02-02-10-44-25;2,0;43,0;100;2,0;3,0;0,0;1,0;column;1,0;False;False;False;5,06700015068;True;0,922999858856
SSF1993w;game;2017-02-02-10-44-25;2,0;44,0;100;1,0;3,0;2,0;0,0;column;1,0;False;True;False;3,63400006294;True;0,664000034332
SSF1993w;game;2017-02-02-10-44-25;2,0;45,0;100;1,0;0,0;2,0;3,0;column;0,0;True;False;False;1,23300004005;False;1,44000005722
SSF1993w;game;2017-02-02-10-44-25;2,0;46,0;100;1,0;0,0;2,0;3,0;column;0,0;False;True;False;1,53399991989;True;1,03400015831
SSF1993w;game;2017-02-02-10-44-25;2,0;47,0;100;1,0;0,0;3,0;2,0;row;1,0;True;True;False;2,43400001526;False;0,800999879837
SSF1993w;game;2017-02-02-10-44-25;2,0;48,0;100;3,0;2,0;0,0;1,0;column;1,0;True;True;True;2,93400001526;True;0,968999862671
SSF1993w;game;2017-02-02-10-44-25;3,0;1,0;1000;3,0;2,0;0,0;1,0;column;1,0;False;False;False;4,60000014305;True;0,830999851227
SSF1993w;game;2017-02-02-10-44-25;3,0;2,0;1000;2,0;3,0;0,0;1,0;column;1,0;False;True;False;2,03300023079;True;1,2349998951
SSF1993w;game;2017-02-02-10-44-25;3,0;3,0;1000;3,0;1,0;2,0;0,0;row;1,0;True;False;True;2,06699991226;True;0,898000001907
SSF1993w;game;2017-02-02-10-44-25;3,0;4,0;1000;1,0;2,0;0,0;3,0;column;0,0;True;False;True;2,96600008011;True;1,26999998093
SSF1993w;game;2017-02-02-10-44-25;3,0;5,0;1000;1,0;3,0;0,0;2,0;row;1,0;True;False;True;3,23299980164;True;0,761999845505
SSF1993w;game;2017-02-02-10-44-25;3,0;6,0;1000;1,0;2,0;0,0;3,0;row;1,0;True;True;False;2,06599998474;False;0,728000164032
SSF1993w;game;2017-02-02-10-44-25;3,0;7,0;1000;1,0;2,0;0,0;3,0;column;1,0;False;False;False;4,53299999237;True;1,20199990273
SSF1993w;game;2017-02-02-10-44-25;3,0;8,0;1000;2,0;1,0;3,0;0,0;row;1,0;False;False;True;4,69899988174;False;1,23199987411
SSF1993w;game;2017-02-02-10-44-25;3,0;9,0;1000;3,0;0,0;1,0;2,0;row;0,0;True;False;True;2,13499999046;True;1,50200009346
SSF1993w;game;2017-02-02-10-44-25;3,0;10,0;1000;2,0;0,0;1,0;3,0;row;0,0;False;True;True;1,30000019073;False;1,46799993515
SSF1993w;game;2017-02-02-10-44-25;3,0;11,0;1000;1,0;0,0;3,0;2,0;row;1,0;True;True;False;2,49900007248;False;0,628000020981
SSF1993w;game;2017-02-02-10-44-25;3,0;12,0;1000;3,0;1,0;2,0;0,0;column;1,0;False;True;False;3,72900009155;True;1,23199987411
SSF1993w;game;2017-02-02-10-44-25;3,0;13,0;1000;2,0;3,0;1,0;0,0;row;1,0;True;False;False;3,867000103;False;1,06300020218
SSF1993w;game;2017-02-02-10-44-25;3,0;14,0;1000;1,0;0,0;3,0;2,0;column;0,0;True;False;False;3,36500000954;False;0,832000017166
SSF1993w;game;2017-02-02-10-44-25;3,0;15,0;1000;0,0;2,0;3,0;1,0;row;1,0;False;False;True;1,53200006485;False;0,833999872208
SSF1993w;game;2017-02-02-10-44-25;3,0;16,0;1000;3,0;2,0;1,0;0,0;row;0,0;False;False;False;1,632999897;True;0,667999982834
SSF1993w;game;2017-02-02-10-44-25;3,0;17,0;1000;1,0;2,0;0,0;3,0;column;1,0;True;True;True;2,46600008011;True;1,23799991608
SSF1993w;game;2017-02-02-10-44-25;3,0;18,0;1000;1,0;3,0;2,0;0,0;column;1,0;False;False;False;4,23199987411;True;1,29899978638
SSF1993w;game;2017-02-02-10-44-25;3,0;19,0;1000;2,0;1,0;0,0;3,0;row;0,0;False;True;False;1,59899997711;True;1,39800000191
SSF1993w;game;2017-02-02-10-44-25;3,0;20,0;1000;2,0;0,0;3,0;1,0;row;1,0;True;True;True;3,06699991226;True;1,49399995804
SSF1993w;game;2017-02-02-10-44-25;3,0;21,0;1000;1,0;0,0;3,0;2,0;column;1,0;True;False;False;3,69900012016;False;0,565999984741
SSF1993w;game;2017-02-02-10-44-25;3,0;22,0;1000;2,0;0,0;3,0;1,0;column;1,0;False;True;False;2,29999995232;True;0,9359998703
SSF1993w;game;2017-02-02-10-44-25;3,0;23,0;1000;2,0;1,0;0,0;3,0;column;1,0;True;True;True;2,23300004005;True;0,968000173569
SSF1993w;game;2017-02-02-10-44-25;3,0;24,0;1000;1,0;3,0;0,0;2,0;column;1,0;False;True;True;4,83400011063;False;1,26300001144
SSF1993w;game;2017-02-02-10-44-25;3,0;25,0;1000;2,0;0,0;1,0;3,0;column;0,0;True;True;False;2,20000004768;False;1,4960000515
SSF1993w;game;2017-02-02-10-44-25;3,0;26,0;1000;1,0;2,0;3,0;0,0;column;0,0;False;True;True;1,33299994469;False;0,802999973297
SSF1993w;game;2017-02-02-10-44-25;3,0;27,0;1000;3,0;2,0;1,0;0,0;column;1,0;True;False;False;2,5;False;1,13599991798
SSF1993w;game;2017-02-02-10-44-25;3,0;28,0;1000;0,0;1,0;3,0;2,0;row;0,0;False;True;True;1,53400015831;False;0,903000116348
SSF1993w;game;2017-02-02-10-44-25;3,0;29,0;1000;3,0;2,0;1,0;0,0;column;1,0;False;True;False;2,69900012016;True;0,931999921799
SSF1993w;game;2017-02-02-10-44-25;3,0;30,0;1000;1,0;0,0;2,0;3,0;column;0,0;True;False;False;1,96499991417;False;0,736000061035
SSF1993w;game;2017-02-02-10-44-25;3,0;31,0;1000;1,0;0,0;2,0;3,0;row;0,0;True;True;True;1,46700000763;True;0,628999948502
SSF1993w;game;2017-02-02-10-44-25;3,0;32,0;1000;3,0;2,0;0,0;1,0;column;0,0;False;False;True;1,73300004005;False;0,802999973297
SSF1993w;game;2017-02-02-10-44-25;3,0;33,0;1000;0,0;2,0;1,0;3,0;column;1,0;True;True;True;2,36599993706;True;0,667000055313
SSF1993w;game;2017-02-02-10-44-25;3,0;34,0;1000;2,0;0,0;3,0;1,0;row;0,0;True;False;False;2,36500000954;False;1,03400015831
SSF1993w;game;2017-02-02-10-44-25;3,0;35,0;1000;3,0;1,0;2,0;0,0;column;0,0;True;True;False;2,09599995613;False;0,735999822617
SSF1993w;game;2017-02-02-10-44-25;3,0;36,0;1000;3,0;0,0;2,0;1,0;column;0,0;False;False;False;1,86599993706;True;0,632999897003
SSF1993w;game;2017-02-02-10-44-25;3,0;37,0;1000;3,0;1,0;0,0;2,0;row;0,0;False;True;True;1,5;False;1,23100018501
SSF1993w;game;2017-02-02-10-44-25;3,0;38,0;1000;1,0;0,0;3,0;2,0;column;1,0;False;True;True;2,73399996758;False;0,868000030518
SSF1993w;game;2017-02-02-10-44-25;3,0;39,0;1000;1,0;3,0;0,0;2,0;column;0,0;True;True;True;1,23300004005;True;0,598000049591
SSF1993w;game;2017-02-02-10-44-25;3,0;40,0;1000;3,0;1,0;2,0;0,0;row;0,0;True;False;True;1,20000004768;True;1,16600012779
SSF1993w;game;2017-02-02-10-44-25;3,0;41,0;1000;2,0;3,0;1,0;0,0;column;1,0;False;True;True;2,76699995995;False;0,693000078201
SSF1993w;game;2017-02-02-10-44-25;3,0;42,0;1000;2,0;3,0;1,0;0,0;column;0,0;False;False;False;2,23100018501;True;0,993000030518
SSF1993w;game;2017-02-02-10-44-25;3,0;43,0;1000;2,0;0,0;1,0;3,0;column;1,0;True;False;True;2,39600014687;True;0,736999988556
SSF1993w;game;2017-02-02-10-44-25;3,0;44,0;1000;1,0;0,0;2,0;3,0;row;0,0;False;False;False;2,2990000248;True;1,26999998093
SSF1993w;game;2017-02-02-10-44-25;3,0;45,0;1000;0,0;2,0;3,0;1,0;column;1,0;True;True;True;2,23300004005;True;1,39800000191
SSF1993w;game;2017-02-02-10-44-25;3,0;46,0;1000;1,0;2,0;0,0;3,0;row;0,0;False;False;False;3,83100008965;True;1,26499986649
SSF1993w;game;2017-02-02-10-44-25;3,0;47,0;1000;1,0;0,0;2,0;3,0;column;1,0;False;True;False;1,69900012016;True;1,06999993324
SSF1993w;game;2017-02-02-10-44-25;3,0;48,0;1000;1,0;2,0;3,0;0,0;row;0,0;True;True;True;2,43400001526;True;1,39699983597
SSF1993w;game;2017-02-02-10-44-25;4,0;1,0;100;3,0;0,0;1,0;2,0;row;1,0;True;False;False;1,36599993706;False;0,825000047684
SSF1993w;game;2017-02-02-10-44-25;4,0;2,0;100;2,0;1,0;0,0;3,0;column;0,0;False;True;True;2,39900016785;False;0,728999853134
SSF1993w;game;2017-02-02-10-44-25;4,0;3,0;100;2,0;3,0;1,0;0,0;row;1,0;True;True;True;2,76600003242;True;1,03800010681
SSF1993w;game;2017-02-02-10-44-25;4,0;4,0;100;0,0;3,0;2,0;1,0;column;0,0;False;False;False;3,63199996948;True;1,13000011444
SSF1993w;game;2017-02-02-10-44-25;4,0;5,0;100;3,0;1,0;0,0;2,0;column;1,0;True;False;False;2,16499996185;False;0,56200003624
SSF1993w;game;2017-02-02-10-44-25;4,0;6,0;100;0,0;3,0;1,0;2,0;row;0,0;False;False;False;6,20000004768;True;0,832999944687
SSF1993w;game;2017-02-02-10-44-25;4,0;7,0;100;1,0;2,0;3,0;0,0;row;1,0;True;True;True;4,16599988937;True;1,23699998856
SSF1993w;game;2017-02-02-10-44-25;4,0;8,0;100;2,0;1,0;0,0;3,0;row;0,0;True;True;True;2,53399991989;True;1,47199988365
SSF1993w;game;2017-02-02-10-44-25;4,0;9,0;100;0,0;1,0;3,0;2,0;row;0,0;True;True;True;1,36500000954;True;1,13100004196
SSF1993w;game;2017-02-02-10-44-25;4,0;10,0;100;3,0;0,0;1,0;2,0;column;0,0;False;False;False;2,89699983597;True;1,49899983406
SSF1993w;game;2017-02-02-10-44-25;4,0;11,0;100;0,0;2,0;1,0;3,0;column;1,0;True;True;False;2,89900016785;False;0,960000038147
SSF1993w;game;2017-02-02-10-44-25;4,0;12,0;100;0,0;1,0;3,0;2,0;column;1,0;False;True;True;1,63300013542;False;0,861999988556
SSF1993w;game;2017-02-02-10-44-25;4,0;13,0;100;1,0;3,0;0,0;2,0;column;0,0;False;False;False;2,73300004005;True;1,23399996758
SSF1993w;game;2017-02-02-10-44-25;4,0;14,0;100;2,0;0,0;1,0;3,0;column;1,0;False;True;False;1,86599993706;True;1,49500012398
SSF1993w;game;2017-02-02-10-44-25;4,0;15,0;100;0,0;1,0;3,0;2,0;column;0,0;True;False;True;2,06500005722;True;1,00100016594
SSF1993w;game;2017-02-02-10-44-25;4,0;16,0;100;1,0;2,0;0,0;3,0;row;1,0;False;True;False;2,60100007057;True;1,16599988937
SSF1993w;game;2017-02-02-10-44-25;4,0;17,0;100;3,0;0,0;1,0;2,0;column;1,0;True;True;True;3,79999995232;True;1,36500000954
SSF1993w;game;2017-02-02-10-44-25;4,0;18,0;100;2,0;0,0;1,0;3,0;row;1,0;False;True;True;3,73300004005;False;1,12800002098
SSF1993w;game;2017-02-02-10-44-25;4,0;19,0;100;2,0;1,0;3,0;0,0;column;1,0;False;False;False;2,59899997711;True;0,536000013351
SSF1993w;game;2017-02-02-10-44-25;4,0;20,0;100;0,0;3,0;1,0;2,0;row;1,0;False;True;False;5,33299994469;True;1,3029999733
SSF1993w;game;2017-02-02-10-44-25;4,0;21,0;100;2,0;1,0;0,0;3,0;row;1,0;False;True;True;2,16499996185;False;1,49900007248
SSF1993w;game;2017-02-02-10-44-25;4,0;22,0;100;3,0;2,0;0,0;1,0;column;1,0;False;True;False;3,63199996948;True;0,697000026703
SSF1993w;game;2017-02-02-10-44-25;4,0;23,0;100;3,0;1,0;0,0;2,0;row;1,0;False;True;True;1,93299984932;False;0,770000219345
SSF1993w;game;2017-02-02-10-44-25;4,0;24,0;100;2,0;0,0;3,0;1,0;column;1,0;False;False;False;3,87399983406;True;0,839999914169
SSF1993w;game;2017-02-02-10-44-25;4,0;25,0;100;0,0;2,0;1,0;3,0;column;0,0;False;True;False;2,93300008774;True;0,735000133514
SSF1993w;game;2017-02-02-10-44-25;4,0;26,0;100;1,0;3,0;0,0;2,0;column;1,0;False;True;False;1,53299999237;True;0,931999921799
SSF1993w;game;2017-02-02-10-44-25;4,0;27,0;100;0,0;3,0;1,0;2,0;row;0,0;True;False;True;1,49900007248;True;0,626999855042
SSF1993w;game;2017-02-02-10-44-25;4,0;28,0;100;3,0;0,0;2,0;1,0;row;1,0;True;True;True;2,132999897;True;0,769000053406
SSF1993w;game;2017-02-02-10-44-25;4,0;29,0;100;1,0;3,0;2,0;0,0;row;0,0;True;False;True;1,76699995995;True;0,897000074387
SSF1993w;game;2017-02-02-10-44-25;4,0;30,0;100;0,0;3,0;2,0;1,0;row;0,0;True;True;True;1,29999995232;True;0,864000082016
SSF1993w;game;2017-02-02-10-44-25;4,0;31,0;100;1,0;3,0;0,0;2,0;row;0,0;True;False;True;1,49900007248;True;0,832999944687
SSF1993w;game;2017-02-02-10-44-25;4,0;32,0;100;0,0;2,0;3,0;1,0;column;1,0;True;False;False;1,43299984932;False;0,759999990463
SSF1993w;game;2017-02-02-10-44-25;4,0;33,0;100;1,0;0,0;3,0;2,0;row;0,0;False;False;False;1,53299999237;True;0,764999866486
SSF1993w;game;2017-02-02-10-44-25;4,0;34,0;100;2,0;1,0;3,0;0,0;row;1,0;False;True;False;2,56599998474;True;1,12800002098
SSF1993w;game;2017-02-02-10-44-25;4,0;35,0;100;0,0;3,0;1,0;2,0;column;0,0;False;True;False;2,03299999237;True;1,32399988174
SSF1993w;game;2017-02-02-10-44-25;4,0;36,0;100;2,0;3,0;1,0;0,0;column;1,0;False;False;True;1,83400011063;False;0,598999977112
SSF1993w;game;2017-02-02-10-44-25;4,0;37,0;100;0,0;2,0;1,0;3,0;row;1,0;False;False;False;2,03299999237;True;1,09699988365
SSF1993w;game;2017-02-02-10-44-25;4,0;38,0;100;0,0;1,0;3,0;2,0;row;1,0;True;True;False;1,09999990463;False;0,660000085831
SSF1993w;game;2017-02-02-10-44-25;4,0;39,0;100;1,0;0,0;2,0;3,0;column;1,0;False;False;False;1,83399987221;True;0,998000144958
SSF1993w;game;2017-02-02-10-44-25;4,0;40,0;100;3,0;0,0;2,0;1,0;row;0,0;True;False;True;2,0;True;1,29800009727
SSF1993w;game;2017-02-02-10-44-25;4,0;41,0;100;3,0;0,0;1,0;2,0;row;1,0;False;False;True;1,66600012779;False;0,963999986649
SSF1993w;game;2017-02-02-10-44-25;4,0;42,0;100;1,0;3,0;2,0;0,0;column;0,0;False;False;False;2,89999985695;True;0,898000001907
SSF1993w;game;2017-02-02-10-44-25;4,0;43,0;100;1,0;0,0;2,0;3,0;row;0,0;False;True;True;1,4319999218;False;0,53400015831
SSF1993w;game;2017-02-02-10-44-25;4,0;44,0;100;3,0;2,0;1,0;0,0;row;1,0;False;True;False;1,79999995232;True;0,706000089645
SSF1993w;game;2017-02-02-10-44-25;4,0;45,0;100;2,0;3,0;0,0;1,0;row;1,0;False;True;True;2,26599979401;False;1,36500000954
SSF1993w;game;2017-02-02-10-44-25;4,0;46,0;100;0,0;2,0;3,0;1,0;column;1,0;False;True;False;3,29700016975;True;1,02600002289
SSF1993w;game;2017-02-02-10-44-25;4,0;47,0;100;2,0;3,0;0,0;1,0;row;0,0;False;False;True;3,20000004768;False;0,868000030518
SSF1993w;game;2017-02-02-10-44-25;4,0;48,0;100;2,0;0,0;3,0;1,0;row;0,0;True;True;True;2,43299984932;True;0,632999897003
SSF1993w;game;2017-02-02-10-44-25;5,0;1,0;1000;1,0;2,0;3,0;0,0;column;1,0;False;False;False;1,632999897;True;1,46500015259
SSF1993w;game;2017-02-02-10-44-25;5,0;2,0;1000;1,0;3,0;2,0;0,0;column;1,0;True;False;False;1,36699986458;False;1,00600004196
SSF1993w;game;2017-02-02-10-44-25;5,0;3,0;1000;0,0;1,0;3,0;2,0;row;0,0;True;False;True;1,39899992943;True;1,39999985695
SSF1993w;game;2017-02-02-10-44-25;5,0;4,0;1000;0,0;3,0;2,0;1,0;column;1,0;False;False;False;1,76600003242;True;1,36500000954
SSF1993w;game;2017-02-02-10-44-25;5,0;5,0;1000;2,0;1,0;3,0;0,0;row;0,0;True;False;False;2,56500005722;False;0,737999916077
SSF1993w;game;2017-02-02-10-44-25;5,0;6,0;1000;1,0;3,0;0,0;2,0;column;1,0;True;False;False;1,33399987221;False;0,90399980545
SSF1993w;game;2017-02-02-10-44-25;5,0;7,0;1000;1,0;0,0;3,0;2,0;row;0,0;True;True;True;1,46499991417;True;0,765000104904
SSF1993w;game;2017-02-02-10-44-25;5,0;8,0;1000;1,0;3,0;0,0;2,0;row;0,0;True;False;True;1,13399982452;True;0,866999864578
SSF1993w;game;2017-02-02-10-44-25;5,0;9,0;1000;0,0;2,0;1,0;3,0;column;0,0;False;False;False;1,23300004005;True;0,732000112534
SSF1993w;game;2017-02-02-10-44-25;5,0;10,0;1000;2,0;1,0;0,0;3,0;column;1,0;False;False;False;2,46700000763;True;1,03099989891
SSF1993w;game;2017-02-02-10-44-25;5,0;11,0;1000;0,0;2,0;1,0;3,0;row;0,0;False;False;False;1,83299994469;True;0,855999946594
SSF1993w;game;2017-02-02-10-44-25;5,0;12,0;1000;3,0;2,0;1,0;0,0;row;1,0;False;True;False;1,9319999218;True;0,601000070572
SSF1993w;game;2017-02-02-10-44-25;5,0;13,0;1000;3,0;2,0;0,0;1,0;row;1,0;False;True;True;3,63100004196;False;0,696000099182
SSF1993w;game;2017-02-02-10-44-25;5,0;14,0;1000;2,0;3,0;1,0;0,0;column;1,0;True;True;False;1,53199982643;False;0,833000183105
SSF1993w;game;2017-02-02-10-44-25;5,0;15,0;1000;0,0;3,0;1,0;2,0;row;1,0;True;False;True;2,03199982643;True;0,968999862671
SSF1993w;game;2017-02-02-10-44-25;5,0;16,0;1000;0,0;3,0;1,0;2,0;column;1,0;True;False;True;2,59999990463;True;0,663000106812
SSF1993w;game;2017-02-02-10-44-25;5,0;17,0;1000;0,0;1,0;2,0;3,0;row;1,0;True;False;False;1,46700000763;False;0,665999889374
SSF1993w;game;2017-02-02-10-44-25;5,0;18,0;1000;1,0;3,0;0,0;2,0;row;0,0;False;False;False;2,0;True;1,26399993896
SSF1993w;game;2017-02-02-10-44-25;5,0;19,0;1000;3,0;0,0;2,0;1,0;column;1,0;True;True;True;1,23299980164;True;1,47300004959
SSF1993w;game;2017-02-02-10-44-25;5,0;20,0;1000;3,0;2,0;1,0;0,0;column;0,0;False;False;False;1,36500000954;True;0,932000160217
SSF1993w;game;2017-02-02-10-44-25;5,0;21,0;1000;0,0;1,0;3,0;2,0;column;1,0;False;True;False;1,36699986458;True;0,696999788284
SSF1993w;game;2017-02-02-10-44-25;5,0;22,0;1000;2,0;1,0;0,0;3,0;row;1,0;True;False;True;2,7009999752;True;0,802000045776
SSF1993w;game;2017-02-02-10-44-25;5,0;23,0;1000;0,0;2,0;1,0;3,0;row;0,0;True;False;True;1,29999995232;True;1,20300006866
SSF1993w;game;2017-02-02-10-44-25;5,0;24,0;1000;3,0;0,0;2,0;1,0;row;1,0;True;False;True;2,03400015831;True;1,43000006676
SSF1993w;game;2017-02-02-10-44-25;5,0;25,0;1000;0,0;2,0;3,0;1,0;row;0,0;True;True;False;1,30000019073;False;0,869999885559
SSF1993w;game;2017-02-02-10-44-25;5,0;26,0;1000;0,0;2,0;3,0;1,0;column;0,0;True;True;False;2,43300008774;False;0,566999912262
SSF1993w;game;2017-02-02-10-44-25;5,0;27,0;1000;2,0;3,0;1,0;0,0;column;0,0;True;False;True;1,76600003242;True;1,10099983215
SSF1993w;game;2017-02-02-10-44-25;5,0;28,0;1000;0,0;1,0;3,0;2,0;column;0,0;False;False;False;4,30100011826;True;1,17100000381
SSF1993w;game;2017-02-02-10-44-25;5,0;29,0;1000;3,0;2,0;1,0;0,0;row;1,0;True;False;False;1,56500005722;False;1,13400006294
SSF1993w;game;2017-02-02-10-44-25;5,0;30,0;1000;1,0;3,0;2,0;0,0;row;0,0;False;False;True;3,29999995232;False;1,03600001335
SSF1993w;game;2017-02-02-10-44-25;5,0;31,0;1000;2,0;3,0;1,0;0,0;row;0,0;False;True;False;1,33299994469;True;1,46999979019
SSF1993w;game;2017-02-02-10-44-25;5,0;32,0;1000;0,0;3,0;1,0;2,0;column;0,0;True;False;True;1,93099999428;True;0,532999992371
SSF1993w;game;2017-02-02-10-44-25;5,0;33,0;1000;1,0;3,0;2,0;0,0;row;1,0;True;True;False;3,03299999237;False;1,39199995995
SSF1993w;game;2017-02-02-10-44-25;5,0;34,0;1000;3,0;1,0;0,0;2,0;row;1,0;True;True;True;1,83100008965;True;0,602999925613
SSF1993w;game;2017-02-02-10-44-25;5,0;35,0;1000;1,0;3,0;2,0;0,0;column;0,0;True;True;False;1,26499986649;False;0,56200003624
SSF1993w;game;2017-02-02-10-44-25;5,0;36,0;1000;2,0;1,0;0,0;3,0;column;0,0;True;False;True;1,63400006294;True;1,40300011635
SSF1993w;game;2017-02-02-10-44-25;5,0;37,0;1000;2,0;1,0;3,0;0,0;column;0,0;True;False;True;1,03499984741;True;0,763000011444
SSF1993w;game;2017-02-02-10-44-25;5,0;38,0;1000;3,0;0,0;1,0;2,0;column;1,0;False;True;False;1,39999985695;True;0,56500005722
SSF1993w;game;2017-02-02-10-44-25;5,0;39,0;1000;3,0;1,0;2,0;0,0;column;1,0;True;False;False;1,69799995422;False;0,928000211716
SSF1993w;game;2017-02-02-10-44-25;5,0;40,0;1000;1,0;2,0;3,0;0,0;column;1,0;True;False;False;3,46700000763;False;1,43600010872
SSF1993w;game;2017-02-02-10-44-25;5,0;41,0;1000;2,0;3,0;1,0;0,0;row;0,0;True;True;True;2,56599998474;True;1,2990000248
SSF1993w;game;2017-02-02-10-44-25;5,0;42,0;1000;3,0;0,0;2,0;1,0;column;1,0;False;True;False;2,03299999237;True;0,628000020981
SSF1993w;game;2017-02-02-10-44-25;5,0;43,0;1000;2,0;0,0;1,0;3,0;column;0,0;False;False;True;1,63300013542;False;1,23100018501
SSF1993w;game;2017-02-02-10-44-25;5,0;44,0;1000;3,0;1,0;0,0;2,0;column;0,0;False;True;False;2,10000014305;True;1,36899995804
SSF1993w;game;2017-02-02-10-44-25;5,0;45,0;1000;1,0;3,0;2,0;0,0;row;1,0;False;True;False;2,132999897;True;1,47000002861
SSF1993w;game;2017-02-02-10-44-25;5,0;46,0;1000;2,0;3,0;0,0;1,0;row;1,0;False;True;True;1,69999980927;False;0,697999954224
SSF1993w;game;2017-02-02-10-44-25;5,0;47,0;1000;1,0;0,0;3,0;2,0;column;0,0;False;False;False;1,63400006294;True;1,46300005913
SSF1993w;game;2017-02-02-10-44-25;5,0;48,0;1000;0,0;1,0;2,0;3,0;row;0,0;True;False;True;1,73399996758;True;1,0039999485
SSF1993w;game;2017-02-02-10-44-25;6,0;1,0;-100;1,0;3,0;0,0;2,0;column;1,0;True;False;False;2,91700005531;False;0,723999977112
SSF1993w;game;2017-02-02-10-44-25;6,0;2,0;-100;0,0;1,0;2,0;3,0;column;1,0;False;True;False;1,71600008011;True;1,30000019073
SSF1993w;game;2017-02-02-10-44-25;6,0;3,0;-100;2,0;3,0;1,0;0,0;column;0,0;True;False;True;1,74699997902;True;0,695000171661
SSF1993w;game;2017-02-02-10-44-25;6,0;4,0;-100;1,0;2,0;0,0;3,0;row;0,0;False;False;False;1,71600008011;True;0,557000160217
SSF1993w;game;2017-02-02-10-44-25;6,0;5,0;-100;3,0;2,0;0,0;1,0;row;1,0;False;False;False;2,34999990463;True;1,33500003815
SSF1993w;game;2017-02-02-10-44-25;6,0;6,0;-100;2,0;0,0;1,0;3,0;column;0,0;True;False;False;4,38100004196;False;0,592000007629
SSF1993w;game;2017-02-02-10-44-25;6,0;7,0;-100;1,0;2,0;3,0;0,0;row;1,0;True;False;False;2,61500000954;False;0,758000135422
SSF1993w;game;2017-02-02-10-44-25;6,0;8,0;-100;3,0;2,0;0,0;1,0;row;0,0;True;True;True;1,78200006485;True;1,50200009346
SSF1993w;game;2017-02-02-10-44-25;6,0;9,0;-100;3,0;0,0;2,0;1,0;row;0,0;True;True;True;1,4470000267;True;1,52299976349
SSF1993w;game;2017-02-02-10-44-25;6,0;10,0;-100;2,0;3,0;0,0;1,0;column;0,0;True;True;True;1,36599993706;True;0,532999992371
SSF1993w;game;2017-02-02-10-44-25;6,0;11,0;-100;0,0;3,0;1,0;2,0;column;0,0;False;False;False;2,28299999237;True;0,596999883652
SSF1993w;game;2017-02-02-10-44-25;6,0;12,0;-100;1,0;3,0;2,0;0,0;row;0,0;True;True;True;2,01699995995;True;1,23300004005
SSF1993w;game;2017-02-02-10-44-25;6,0;13,0;-100;2,0;1,0;0,0;3,0;row;1,0;True;True;True;2,55100011826;True;0,572999954224
SSF1993w;game;2017-02-02-10-44-25;6,0;14,0;-100;1,0;0,0;2,0;3,0;column;1,0;True;True;True;1,51499986649;True;0,772000074387
SSF1993w;game;2017-02-02-10-44-25;6,0;15,0;-100;1,0;0,0;2,0;3,0;row;0,0;False;True;False;1,58200001717;True;0,998999834061
SSF1993w;game;2017-02-02-10-44-25;6,0;16,0;-100;0,0;2,0;3,0;1,0;column;1,0;True;False;True;2,94900012016;True;0,799000024796
SSF1993w;game;2017-02-02-10-44-25;6,0;17,0;-100;0,0;3,0;1,0;2,0;column;0,0;True;False;True;3,01600003242;True;0,925999879837
SSF1993w;game;2017-02-02-10-44-25;6,0;18,0;-100;2,0;1,0;0,0;3,0;column;1,0;True;False;False;1,41700005531;False;0,726999998093
SSF1993w;game;2017-02-02-10-44-25;6,0;19,0;-100;3,0;0,0;2,0;1,0;row;1,0;False;True;False;1,48300004005;True;0,730999946594
SSF1993w;game;2017-02-02-10-44-25;6,0;20,0;-100;0,0;3,0;1,0;2,0;row;0,0;True;False;True;1,44899988174;True;0,601000070572
SSF1993w;game;2017-02-02-10-44-25;6,0;21,0;-100;2,0;1,0;3,0;0,0;row;0,0;False;False;True;2,61599993706;False;0,664999961853
SSF1993w;game;2017-02-02-10-44-25;6,0;22,0;-100;3,0;0,0;2,0;1,0;column;0,0;False;True;False;2,08400011063;True;0,699999809265
SSF1993w;game;2017-02-02-10-44-25;6,0;23,0;-100;0,0;2,0;1,0;3,0;row;0,0;True;True;True;2,78399991989;True;0,966000080109
SSF1993w;game;2017-02-02-10-44-25;6,0;24,0;-100;2,0;0,0;3,0;1,0;column;0,0;True;True;False;1,85000014305;False;0,634999990463
SSF1993w;game;2017-02-02-10-44-25;6,0;25,0;-100;0,0;3,0;2,0;1,0;row;0,0;False;False;False;1,64900016785;True;0,999000072479
SSF1993w;game;2017-02-02-10-44-25;6,0;26,0;-100;1,0;3,0;2,0;0,0;row;1,0;False;True;False;1,48399996758;True;1,33399987221
SSF1993w;game;2017-02-02-10-44-25;6,0;27,0;-100;1,0;2,0;0,0;3,0;column;1,0;True;False;True;1,99000000954;True;0,728000164032
SSF1993w;game;2017-02-02-10-44-25;6,0;28,0;-100;2,0;1,0;3,0;0,0;column;0,0;True;True;True;2,58299994469;True;0,932000160217
SSF1993w;game;2017-02-02-10-44-25;6,0;29,0;-100;1,0;3,0;2,0;0,0;row;0,0;False;True;False;1,75;True;1,33599996567
SSF1993w;game;2017-02-02-10-44-25;6,0;30,0;-100;3,0;1,0;2,0;0,0;row;0,0;False;True;False;0,947999954224;True;1,36299991608
SSF1993w;game;2017-02-02-10-44-25;6,0;31,0;-100;0,0;3,0;2,0;1,0;row;0,0;True;True;True;1,40000009537;True;0,633999824524
SSF1993w;game;2017-02-02-10-44-25;6,0;32,0;-100;0,0;1,0;2,0;3,0;column;0,0;True;True;True;1,48099994659;True;0,898999929428
SSF1993w;game;2017-02-02-10-44-25;6,0;33,0;-100;0,0;2,0;3,0;1,0;column;0,0;True;False;False;1,59899997711;False;1,09399986267
SSF1993w;game;2017-02-02-10-44-25;6,0;34,0;-100;1,0;0,0;2,0;3,0;column;0,0;True;False;False;2,88099980354;False;1,26799988747
SSF1993w;game;2017-02-02-10-44-25;6,0;35,0;-100;3,0;1,0;0,0;2,0;column;0,0;True;True;False;0,982000112534;False;1,26699995995
SSF1993w;game;2017-02-02-10-44-25;6,0;36,0;-100;1,0;0,0;2,0;3,0;column;0,0;False;True;False;2,08500003815;True;1,4359998703
SSF1993w;game;2017-02-02-10-44-25;6,0;37,0;-100;3,0;0,0;2,0;1,0;column;0,0;True;False;True;2,34899997711;True;0,596999883652
SSF1993w;game;2017-02-02-10-44-25;6,0;38,0;-100;0,0;1,0;2,0;3,0;column;0,0;False;False;False;1,54999995232;True;0,958999872208
SSF1993w;game;2017-02-02-10-44-25;6,0;39,0;-100;3,0;0,0;1,0;2,0;column;0,0;True;False;False;1,88300013542;False;1,0609998703
SSF1993w;game;2017-02-02-10-44-25;6,0;40,0;-100;3,0;1,0;2,0;0,0;column;1,0;True;False;False;1,14899992943;False;0,598000049591
SSF1993w;game;2017-02-02-10-44-25;6,0;41,0;-100;0,0;3,0;1,0;2,0;column;1,0;True;True;True;1,48200011253;True;1,29200005531
SSF1993w;game;2017-02-02-10-44-25;6,0;42,0;-100;2,0;0,0;1,0;3,0;column;1,0;True;False;False;0,948999881744;False;1,30099987984
SSF1993w;game;2017-02-02-10-44-25;6,0;43,0;-100;2,0;0,0;1,0;3,0;row;0,0;False;False;False;2,24799990654;True;1,39300012589
SSF1993w;game;2017-02-02-10-44-25;6,0;44,0;-100;1,0;2,0;0,0;3,0;row;1,0;False;True;False;2,58400011063;True;0,837999820709
SSF1993w;game;2017-02-02-10-44-25;6,0;45,0;-100;1,0;2,0;0,0;3,0;row;0,0;True;False;True;1,31500005722;True;1,36599993706
SSF1993w;game;2017-02-02-10-44-25;6,0;46,0;-100;3,0;0,0;1,0;2,0;row;0,0;False;False;False;1,21700000763;True;0,631000041962
SSF1993w;game;2017-02-02-10-44-25;6,0;47,0;-100;3,0;2,0;0,0;1,0;row;0,0;False;False;False;2,24799990654;True;1,12800002098
SSF1993w;game;2017-02-02-10-44-25;6,0;48,0;-100;1,0;0,0;3,0;2,0;column;1,0;False;True;False;1,65000009537;True;0,631999969482
SSF1993w;game;2017-02-02-10-44-25;7,0;1,0;-100;0,0;3,0;2,0;1,0;row;1,0;True;True;False;1,61500000954;False;1,06699991226
SSF1993w;game;2017-02-02-10-44-25;7,0;2,0;-100;2,0;3,0;0,0;1,0;row;1,0;False;True;True;1,34700012207;False;0,961000204086
SSF1993w;game;2017-02-02-10-44-25;7,0;3,0;-100;3,0;1,0;0,0;2,0;row;0,0;False;False;False;1,45000004768;True;1,4279999733
SSF1993w;game;2017-02-02-10-44-25;7,0;4,0;-100;3,0;2,0;0,0;1,0;column;1,0;True;False;False;1,98299980164;False;0,756999969482
SSF1993w;game;2017-02-02-10-44-25;7,0;5,0;-100;3,0;2,0;1,0;0,0;column;0,0;True;True;False;3,11299991608;False;0,62900018692
SSF1993w;game;2017-02-02-10-44-25;7,0;6,0;-100;0,0;3,0;1,0;2,0;row;1,0;False;False;False;1,94999980927;True;1,33599996567
SSF1993w;game;2017-02-02-10-44-25;7,0;7,0;-100;2,0;0,0;3,0;1,0;row;0,0;True;True;True;1,88199996948;True;1,3710000515
SSF1993w;game;2017-02-02-10-44-25;7,0;8,0;-100;1,0;0,0;3,0;2,0;column;0,0;True;False;False;1,48399996758;False;0,802000045776
SSF1993w;game;2017-02-02-10-44-25;7,0;9,0;-100;2,0;1,0;3,0;0,0;row;1,0;True;False;False;1,81500005722;False;0,768999814987
SSF1993w;game;2017-02-02-10-44-25;7,0;10,0;-100;0,0;3,0;1,0;2,0;column;1,0;False;True;False;2,71499991417;True;1,33200001717
SSF1993w;game;2017-02-02-10-44-25;7,0;11,0;-100;3,0;1,0;2,0;0,0;row;1,0;True;True;False;1,98399996758;False;0,628000020981
SSF1993w;game;2017-02-02-10-44-25;7,0;12,0;-100;0,0;2,0;1,0;3,0;column;1,0;True;True;True;2,41499996185;True;1,17000007629
SSF1993w;game;2017-02-02-10-44-25;7,0;13,0;-100;2,0;1,0;0,0;3,0;column;0,0;True;False;True;1,5490000248;True;1,39100003242
SSF1993w;game;2017-02-02-10-44-25;7,0;14,0;-100;3,0;2,0;1,0;0,0;row;1,0;True;False;True;1,58399987221;True;1,52199983597
SSF1993w;game;2017-02-02-10-44-25;7,0;15,0;-100;1,0;3,0;2,0;0,0;row;1,0;True;True;True;1,48200011253;True;1,46499991417
SSF1993w;game;2017-02-02-10-44-25;7,0;16,0;-100;3,0;0,0;2,0;1,0;row;0,0;False;True;False;2,0490000248;True;1,46900010109
SSF1993w;game;2017-02-02-10-44-25;7,0;17,0;-100;0,0;2,0;3,0;1,0;row;1,0;True;False;True;1,71600008011;True;1,49699997902
SSF1993w;game;2017-02-02-10-44-25;7,0;18,0;-100;1,0;2,0;3,0;0,0;row;0,0;True;True;True;2,98099994659;True;1,125
SSF1993w;game;2017-02-02-10-44-25;7,0;19,0;-100;1,0;3,0;2,0;0,0;column;1,0;True;True;True;1,51600003242;True;0,703000068665
SSF1993w;game;2017-02-02-10-44-25;7,0;20,0;-100;2,0;3,0;0,0;1,0;row;1,0;True;False;True;1,31700015068;True;1,30100011826
SSF1993w;game;2017-02-02-10-44-25;7,0;21,0;-100;0,0;1,0;2,0;3,0;row;0,0;True;False;True;1,64899992943;True;0,835999965668
SSF1993w;game;2017-02-02-10-44-25;7,0;22,0;-100;0,0;1,0;2,0;3,0;row;1,0;True;True;True;1,25;True;0,559000015259
SSF1993w;game;2017-02-02-10-44-25;7,0;23,0;-100;1,0;0,0;2,0;3,0;row;1,0;False;True;False;2,01600003242;True;0,631000041962
SSF1993w;game;2017-02-02-10-44-25;7,0;24,0;-100;0,0;3,0;2,0;1,0;column;0,0;False;False;False;1,68499994278;True;0,841000080109
SSF1993w;game;2017-02-02-10-44-25;7,0;25,0;-100;2,0;1,0;3,0;0,0;row;1,0;False;True;True;1,84999990463;False;0,999000072479
SSF1993w;game;2017-02-02-10-44-25;7,0;26,0;-100;3,0;0,0;2,0;1,0;row;1,0;True;False;True;1,25;True;0,595999956131
SSF1993w;game;2017-02-02-10-44-25;7,0;27,0;-100;2,0;3,0;1,0;0,0;column;0,0;False;True;True;1,31599998474;False;0,689999818802
SSF1993w;game;2017-02-02-10-44-25;7,0;28,0;-100;0,0;2,0;1,0;3,0;row;1,0;True;True;True;1,09999990463;True;0,963000059128
SSF1993w;game;2017-02-02-10-44-25;7,0;29,0;-100;1,0;2,0;3,0;0,0;column;0,0;False;True;True;1,61699986458;False;1,20199990273
SSF1993w;game;2017-02-02-10-44-25;7,0;30,0;-100;0,0;3,0;1,0;2,0;row;1,0;True;True;True;1,15000009537;True;0,794000148773
SSF1993w;game;2017-02-02-10-44-25;7,0;31,0;-100;2,0;0,0;1,0;3,0;column;0,0;False;False;False;1,04699993134;True;1,2990000248
SSF1993w;game;2017-02-02-10-44-25;7,0;32,0;-100;0,0;1,0;3,0;2,0;row;1,0;False;False;True;1,21600008011;False;1,09899997711
SSF1993w;game;2017-02-02-10-44-25;7,0;33,0;-100;1,0;3,0;0,0;2,0;column;0,0;False;False;False;1,21499991417;True;0,733999967575
SSF1993w;game;2017-02-02-10-44-25;7,0;34,0;-100;0,0;2,0;3,0;1,0;row;0,0;True;True;True;1,38100004196;True;0,865999937057
SSF1993w;game;2017-02-02-10-44-25;7,0;35,0;-100;2,0;1,0;0,0;3,0;row;0,0;False;False;True;1,882999897;False;1,03100013733
SSF1993w;game;2017-02-02-10-44-25;7,0;36,0;-100;3,0;1,0;0,0;2,0;row;0,0;True;True;True;1,18099999428;True;0,963999986649
SSF1993w;game;2017-02-02-10-44-25;7,0;37,0;-100;0,0;1,0;2,0;3,0;column;1,0;True;False;False;1,9509999752;False;1,29600000381
SSF1993w;game;2017-02-02-10-44-25;7,0;38,0;-100;0,0;2,0;1,0;3,0;column;1,0;False;False;False;1,71500015259;True;0,762000083923
SSF1993w;game;2017-02-02-10-44-25;7,0;39,0;-100;3,0;2,0;1,0;0,0;column;1,0;True;True;True;2,1819999218;True;1,42700004578
SSF1993w;game;2017-02-02-10-44-25;7,0;40,0;-100;0,0;1,0;3,0;2,0;row;1,0;True;True;False;1,58200001717;False;1,30000019073
SSF1993w;game;2017-02-02-10-44-25;7,0;41,0;-100;3,0;1,0;0,0;2,0;column;1,0;False;False;False;1,382999897;True;0,56200003624
SSF1993w;game;2017-02-02-10-44-25;7,0;42,0;-100;2,0;0,0;1,0;3,0;row;0,0;True;False;True;2,58299994469;True;0,932000160217
SSF1993w;game;2017-02-02-10-44-25;7,0;43,0;-100;2,0;0,0;3,0;1,0;row;0,0;False;False;False;2,74800014496;True;0,763999938965
SSF1993w;game;2017-02-02-10-44-25;7,0;44,0;-100;3,0;2,0;0,0;1,0;column;0,0;True;False;False;1,83299994469;False;1,46199989319
SSF1993w;game;2017-02-02-10-44-25;7,0;45,0;-100;0,0;2,0;3,0;1,0;row;1,0;False;False;False;1,51399993896;True;1,37199997902
SSF1993w;game;2017-02-02-10-44-25;7,0;46,0;-100;3,0;2,0;0,0;1,0;column;0,0;False;False;False;1,88300013542;True;0,832000017166
SSF1993w;game;2017-02-02-10-44-25;7,0;47,0;-100;2,0;1,0;3,0;0,0;column;0,0;False;False;False;3,91499996185;True;1,40499997139
SSF1993w;game;2017-02-02-10-44-25;7,0;48,0;-100;1,0;0,0;2,0;3,0;row;1,0;True;False;True;1,88199996948;True;0,732000112534
SSF1993w;game;2017-02-02-10-44-25;8,0;1,0;1000;2,0;1,0;3,0;0,0;row;1,0;True;True;True;1,93200016022;True;1,34500002861
SSF1993w;game;2017-02-02-10-44-25;8,0;2,0;1000;2,0;0,0;3,0;1,0;row;1,0;False;True;True;1,46700000763;False;0,636999845505
SSF1993w;game;2017-02-02-10-44-25;8,0;3,0;1000;2,0;0,0;3,0;1,0;column;0,0;False;True;True;1,59999990463;False;1,27100014687
SSF1993w;game;2017-02-02-10-44-25;8,0;4,0;1000;1,0;3,0;2,0;0,0;column;0,0;False;True;True;1,56299996376;False;0,697999954224
SSF1993w;game;2017-02-02-10-44-25;8,0;5,0;1000;2,0;1,0;3,0;0,0;row;0,0;False;True;False;2,867000103;True;0,730000019073
SSF1993w;game;2017-02-02-10-44-25;8,0;6,0;1000;2,0;0,0;3,0;1,0;column;0,0;True;True;True;2,06399989128;True;0,759000062943
SSF1993w;game;2017-02-02-10-44-25;8,0;7,0;1000;2,0;1,0;0,0;3,0;row;0,0;True;False;False;1,79999995232;False;1,19099998474
SSF1993w;game;2017-02-02-10-44-25;8,0;8,0;1000;2,0;3,0;0,0;1,0;row;1,0;True;True;True;1,29699993134;True;0,858999967575
SSF1993w;game;2017-02-02-10-44-25;8,0;9,0;1000;2,0;0,0;3,0;1,0;column;1,0;True;False;False;1,53500008583;False;0,523000001907
SSF1993w;game;2017-02-02-10-44-25;8,0;10,0;1000;2,0;1,0;0,0;3,0;row;1,0;False;True;False;6,36400008202;True;1,46000003815
SSF1993w;game;2017-02-02-10-44-25;8,0;11,0;1000;0,0;3,0;2,0;1,0;column;0,0;True;False;False;2,69900012016;False;1,39800000191
SSF1993w;game;2017-02-02-10-44-25;8,0;12,0;1000;0,0;3,0;2,0;1,0;column;1,0;True;False;True;1,99899983406;True;0,667000055313
SSF1993w;game;2017-02-02-10-44-25;8,0;13,0;1000;1,0;2,0;0,0;3,0;row;0,0;True;False;True;1,23300004005;True;1,50300002098
SSF1993w;game;2017-02-02-10-44-25;8,0;14,0;1000;1,0;2,0;0,0;3,0;row;1,0;False;False;False;2,06700015068;True;0,896999835968
SSF1993w;game;2017-02-02-10-44-25;8,0;15,0;1000;0,0;1,0;2,0;3,0;column;1,0;True;False;True;2,06599998474;True;0,924000024796
SSF1993w;game;2017-02-02-10-44-25;8,0;16,0;1000;2,0;3,0;0,0;1,0;column;0,0;True;False;True;1,83100008965;True;0,894000053406
SSF1993w;game;2017-02-02-10-44-25;8,0;17,0;1000;3,0;1,0;2,0;0,0;row;0,0;False;True;False;1,46599984169;True;0,700000047684
SSF1993w;game;2017-02-02-10-44-25;8,0;18,0;1000;0,0;2,0;1,0;3,0;row;1,0;False;False;False;2,03199982643;True;1,06599998474
SSF1993w;game;2017-02-02-10-44-25;8,0;19,0;1000;2,0;0,0;1,0;3,0;column;1,0;False;True;True;2,19799995422;False;1,13000011444
SSF1993w;game;2017-02-02-10-44-25;8,0;20,0;1000;3,0;2,0;0,0;1,0;row;0,0;True;False;True;1,16600012779;True;1,49599981308
SSF1993w;game;2017-02-02-10-44-25;8,0;21,0;1000;2,0;3,0;0,0;1,0;column;1,0;True;False;False;1,23200011253;False;0,957999944687
SSF1993w;game;2017-02-02-10-44-25;8,0;22,0;1000;0,0;3,0;1,0;2,0;column;1,0;False;True;False;3,66499996185;True;1,13499999046
SSF1993w;game;2017-02-02-10-44-25;8,0;23,0;1000;2,0;1,0;3,0;0,0;column;1,0;False;False;False;1,56699991226;True;1,46399998665
SSF1993w;game;2017-02-02-10-44-25;8,0;24,0;1000;1,0;2,0;3,0;0,0;column;0,0;True;True;False;2,13300013542;False;0,565999984741
SSF1993w;game;2017-02-02-10-44-25;8,0;25,0;1000;3,0;2,0;1,0;0,0;column;0,0;True;True;True;3,73300004005;True;1,27100014687
SSF1993w;game;2017-02-02-10-44-25;8,0;26,0;1000;1,0;0,0;2,0;3,0;row;1,0;True;True;False;1,43099999428;False;0,839999914169
SSF1993w;game;2017-02-02-10-44-25;8,0;27,0;1000;3,0;2,0;0,0;1,0;column;0,0;True;False;True;1,72900009155;True;0,769000053406
SSF1993w;game;2017-02-02-10-44-25;8,0;28,0;1000;1,0;3,0;2,0;0,0;row;0,0;True;False;True;1,83299994469;True;0,871000051498
SSF1993w;game;2017-02-02-10-44-25;8,0;29,0;1000;0,0;3,0;2,0;1,0;row;1,0;True;False;False;1,03299999237;False;1,42499995232
SSF1993w;game;2017-02-02-10-44-25;8,0;30,0;1000;1,0;2,0;3,0;0,0;row;1,0;False;True;True;2,76699995995;False;0,967000007629
SSF1993w;game;2017-02-02-10-44-25;8,0;31,0;1000;0,0;1,0;3,0;2,0;row;1,0;False;False;False;1,83200001717;True;0,65900015831
SSF1993w;game;2017-02-02-10-44-25;8,0;32,0;1000;3,0;2,0;0,0;1,0;row;0,0;False;True;True;1,63400006294;False;0,703000068665
SSF1993w;game;2017-02-02-10-44-25;8,0;33,0;1000;0,0;2,0;1,0;3,0;column;0,0;True;True;False;2,06699991226;False;1,33599996567
SSF1993w;game;2017-02-02-10-44-25;8,0;34,0;1000;0,0;1,0;2,0;3,0;column;1,0;False;False;False;1,20000004768;True;1,2009999752
SSF1993w;game;2017-02-02-10-44-25;8,0;35,0;1000;1,0;0,0;2,0;3,0;column;0,0;False;True;False;1,89999985695;True;1,33599996567
SSF1993w;game;2017-02-02-10-44-25;8,0;36,0;1000;0,0;2,0;3,0;1,0;column;0,0;False;False;True;2,60000014305;False;1,38899993896
SSF1993w;game;2017-02-02-10-44-25;8,0;37,0;1000;1,0;2,0;3,0;0,0;row;0,0;False;True;True;1,90000009537;False;0,659999847412
SSF1993w;game;2017-02-02-10-44-25;8,0;38,0;1000;0,0;1,0;3,0;2,0;row;1,0;True;True;False;2,2009999752;False;1,40100002289
SSF1993w;game;2017-02-02-10-44-25;8,0;39,0;1000;3,0;1,0;0,0;2,0;row;1,0;False;False;True;2,16699981689;False;1,27200007439
SSF1993w;game;2017-02-02-10-44-25;8,0;40,0;1000;3,0;2,0;1,0;0,0;row;0,0;True;True;True;1,53399991989;True;0,667999982834
SSF1993w;game;2017-02-02-10-44-25;8,0;41,0;1000;3,0;0,0;2,0;1,0;row;1,0;False;True;False;1,79999995232;True;0,988000154495
SSF1993w;game;2017-02-02-10-44-25;8,0;42,0;1000;3,0;0,0;1,0;2,0;column;0,0;False;False;False;3,0;True;0,99799990654
SSF1993w;game;2017-02-02-10-44-25;8,0;43,0;1000;3,0;1,0;0,0;2,0;column;0,0;True;False;True;1,46700000763;True;1,12300014496
SSF1993w;game;2017-02-02-10-44-25;8,0;44,0;1000;0,0;1,0;2,0;3,0;column;0,0;False;True;False;2,40200018883;True;1,16499996185
SSF1993w;game;2017-02-02-10-44-25;8,0;45,0;1000;1,0;2,0;0,0;3,0;column;0,0;False;False;True;1,06599998474;False;1,30100011826
SSF1993w;game;2017-02-02-10-44-25;8,0;46,0;1000;0,0;1,0;3,0;2,0;column;1,0;True;False;False;1,39899992943;False;1,33700013161
SSF1993w;game;2017-02-02-10-44-25;8,0;47,0;1000;1,0;0,0;2,0;3,0;row;1,0;False;True;False;2,7349998951;True;0,702000141144
SSF1993w;game;2017-02-02-10-44-25;8,0;48,0;1000;3,0;1,0;0,0;2,0;column;1,0;False;False;True;1,5;False;0,736000061035
SSF1993w;game;2017-02-02-10-44-25;9,0;1,0;100;2,0;3,0;0,0;1,0;column;0,0;True;False;False;3,03299999237;False;1,00900006294
SSF1993w;game;2017-02-02-10-44-25;9,0;2,0;100;1,0;0,0;2,0;3,0;row;0,0;True;False;True;1,13400006294;True;0,826999902725
SSF1993w;game;2017-02-02-10-44-25;9,0;3,0;100;0,0;1,0;2,0;3,0;row;1,0;True;False;False;2,06700015068;False;1,5039999485
SSF1993w;game;2017-02-02-10-44-25;9,0;4,0;100;1,0;2,0;3,0;0,0;column;0,0;True;True;True;2,33099985123;True;1,49399995804
SSF1993w;game;2017-02-02-10-44-25;9,0;5,0;100;1,0;0,0;3,0;2,0;row;1,0;False;True;False;1,23399996758;True;1,00400018692
SSF1993w;game;2017-02-02-10-44-25;9,0;6,0;100;0,0;1,0;2,0;3,0;row;0,0;True;False;True;1,66599988937;True;0,52999997139
SSF1993w;game;2017-02-02-10-44-25;9,0;7,0;100;0,0;2,0;1,0;3,0;row;0,0;False;True;False;2,23099994659;True;1,00099992752
SSF1993w;game;2017-02-02-10-44-25;9,0;8,0;100;3,0;1,0;0,0;2,0;column;0,0;True;True;False;2,30000019073;False;1,4319999218
SSF1993w;game;2017-02-02-10-44-25;9,0;9,0;100;1,0;3,0;2,0;0,0;row;0,0;False;False;False;2,13300013542;True;0,934000015259
SSF1993w;game;2017-02-02-10-44-25;9,0;10,0;100;3,0;2,0;0,0;1,0;column;0,0;True;False;False;1,96399998665;False;1,06900000572
SSF1993w;game;2017-02-02-10-44-25;9,0;11,0;100;2,0;3,0;0,0;1,0;row;0,0;True;True;True;2,20000004768;True;0,866000175476
SSF1993w;game;2017-02-02-10-44-25;9,0;12,0;100;1,0;2,0;0,0;3,0;column;0,0;True;False;True;1,50099992752;True;0,898000001907
SSF1993w;game;2017-02-02-10-44-25;9,0;13,0;100;1,0;2,0;3,0;0,0;column;0,0;False;False;True;1,76699995995;False;0,604000091553
SSF1993w;game;2017-02-02-10-44-25;9,0;14,0;100;0,0;1,0;3,0;2,0;column;1,0;True;True;False;1,79999995232;False;1,03900003433
SSF1993w;game;2017-02-02-10-44-25;9,0;15,0;100;3,0;2,0;1,0;0,0;column;1,0;True;False;True;3,90100002289;True;1,06299996376
SSF1993w;game;2017-02-02-10-44-25;9,0;16,0;100;0,0;2,0;3,0;1,0;column;0,0;False;False;False;1,53299999237;True;1,0
SSF1993w;game;2017-02-02-10-44-25;9,0;17,0;100;1,0;2,0;0,0;3,0;row;0,0;False;True;True;1,23300004005;False;1,39100003242
SSF1993w;game;2017-02-02-10-44-25;9,0;18,0;100;3,0;1,0;2,0;0,0;row;0,0;True;False;True;1,33400011063;True;1,06200003624
SSF1993w;game;2017-02-02-10-44-25;9,0;19,0;100;2,0;3,0;1,0;0,0;row;1,0;False;True;False;1,93399977684;True;1,39700007439
SSF1993w;game;2017-02-02-10-44-25;9,0;20,0;100;0,0;3,0;2,0;1,0;column;0,0;True;False;True;1,16700005531;True;0,655999898911
SSF1993w;game;2017-02-02-10-44-25;9,0;21,0;100;2,0;0,0;3,0;1,0;row;0,0;False;False;False;1,39700007439;True;1,43399977684
SSF1993w;game;2017-02-02-10-44-25;9,0;22,0;100;2,0;0,0;3,0;1,0;column;1,0;True;True;True;1,36600017548;True;1,16200017929
SSF1993w;game;2017-02-02-10-44-25;9,0;23,0;100;3,0;2,0;1,0;0,0;row;0,0;True;False;True;1,23300004005;True;0,638000011444
SSF1993w;game;2017-02-02-10-44-25;9,0;24,0;100;2,0;0,0;1,0;3,0;column;1,0;True;True;True;1,46700000763;True;1,49599981308
SSF1993w;game;2017-02-02-10-44-25;9,0;25,0;100;1,0;0,0;2,0;3,0;row;1,0;False;True;True;1,43299984932;False;0,671000003815
SSF1993w;game;2017-02-02-10-44-25;9,0;26,0;100;1,0;0,0;3,0;2,0;column;0,0;True;False;True;1,03299999237;True;1,09200000763
SSF1993w;game;2017-02-02-10-44-25;9,0;27,0;100;0,0;1,0;2,0;3,0;column;1,0;True;True;True;0,96599984169;True;1,39499998093
SSF1993w;game;2017-02-02-10-44-25;9,0;28,0;100;1,0;2,0;3,0;0,0;column;1,0;True;True;True;0,799999952316;True;1,132999897
SSF1993w;game;2017-02-02-10-44-25;9,0;29,0;100;0,0;1,0;3,0;2,0;column;0,0;False;True;True;1,29999995232;False;0,731999874115
SSF1993w;game;2017-02-02-10-44-25;9,0;30,0;100;3,0;1,0;2,0;0,0;column;1,0;True;True;True;0,967000007629;True;0,931999921799
SSF1993w;game;2017-02-02-10-44-25;9,0;31,0;100;3,0;2,0;0,0;1,0;column;0,0;False;False;True;1,23399996758;False;0,530999898911
SSF1993w;game;2017-02-02-10-44-25;9,0;32,0;100;1,0;3,0;2,0;0,0;column;1,0;True;True;True;0,867000102997;True;1,37199997902
SSF1993w;game;2017-02-02-10-44-25;9,0;33,0;100;3,0;2,0;1,0;0,0;column;0,0;False;False;False;1,39999985695;True;1,22900009155
SSF1993w;game;2017-02-02-10-44-25;9,0;34,0;100;3,0;0,0;2,0;1,0;column;0,0;False;True;True;1,40000009537;False;1,44000005722
SSF1993w;game;2017-02-02-10-44-25;9,0;35,0;100;2,0;3,0;1,0;0,0;row;0,0;False;True;True;1,39600014687;False;1,0039999485
SSF1993w;game;2017-02-02-10-44-25;9,0;36,0;100;1,0;3,0;2,0;0,0;column;0,0;True;True;False;1,03399991989;False;0,961999893188
SSF1993w;game;2017-02-02-10-44-25;9,0;37,0;100;3,0;0,0;2,0;1,0;column;1,0;False;True;False;1,26499986649;True;1,36500000954
SSF1993w;game;2017-02-02-10-44-25;9,0;38,0;100;1,0;2,0;3,0;0,0;row;0,0;True;False;False;2,33299994469;False;1,12400007248
SSF1993w;game;2017-02-02-10-44-25;9,0;39,0;100;0,0;1,0;2,0;3,0;column;0,0;True;True;False;1,53299999237;False;1,49699997902
SSF1993w;game;2017-02-02-10-44-25;9,0;40,0;100;0,0;3,0;1,0;2,0;column;1,0;False;True;False;1,33399987221;True;1,12999987602
SSF1993w;game;2017-02-02-10-44-25;9,0;41,0;100;2,0;3,0;1,0;0,0;row;0,0;True;False;True;1,06699991226;True;0,664999961853
SSF1993w;game;2017-02-02-10-44-25;9,0;42,0;100;3,0;2,0;1,0;0,0;column;0,0;True;True;True;1,90000009537;True;1,09999990463
SSF1993w;game;2017-02-02-10-44-25;9,0;43,0;100;3,0;0,0;1,0;2,0;column;0,0;True;True;True;2,03399991989;True;0,835999965668
SSF1993w;game;2017-02-02-10-44-25;9,0;44,0;100;0,0;3,0;2,0;1,0;row;1,0;False;True;True;1,70000004768;False;1,22999978065
SSF1993w;game;2017-02-02-10-44-25;9,0;45,0;100;3,0;2,0;1,0;0,0;column;1,0;False;False;False;3,96700000763;True;0,696000099182
SSF1993w;game;2017-02-02-10-44-25;9,0;46,0;100;0,0;1,0;3,0;2,0;row;1,0;False;True;True;1,33099985123;False;1,29400014877
SSF1993w;game;2017-02-02-10-44-25;9,0;47,0;100;2,0;0,0;1,0;3,0;column;0,0;True;True;True;1,13400006294;True;1,03800010681
SSF1993w;game;2017-02-02-10-44-25;9,0;48,0;100;2,0;0,0;1,0;3,0;row;0,0;True;False;True;0,866999864578;True;0,961999893188
SSF1993w;game;2017-02-02-10-44-25;10,0;1,0;-100;1,0;2,0;0,0;3,0;column;0,0;True;False;False;1,18300008774;False;1,38499999046
SSF1993w;game;2017-02-02-10-44-25;10,0;2,0;-100;3,0;0,0;2,0;1,0;column;1,0;False;False;False;1,6139998436;True;0,931999921799
SSF1993w;game;2017-02-02-10-44-25;10,0;3,0;-100;1,0;3,0;0,0;2,0;row;0,0;True;False;True;1,15000009537;True;1,26399993896
SSF1993w;game;2017-02-02-10-44-25;10,0;4,0;-100;1,0;0,0;2,0;3,0;row;0,0;True;True;True;1,84899997711;True;1,45599985123
SSF1993w;game;2017-02-02-10-44-25;10,0;5,0;-100;3,0;1,0;2,0;0,0;row;1,0;False;False;False;1,28200006485;True;0,868999958038
SSF1993w;game;2017-02-02-10-44-25;10,0;6,0;-100;2,0;3,0;1,0;0,0;row;0,0;True;True;True;1,28299999237;True;1,20199990273
SSF1993w;game;2017-02-02-10-44-25;10,0;7,0;-100;1,0;0,0;3,0;2,0;row;1,0;False;False;False;1,04999995232;True;1,5039999485
SSF1993w;game;2017-02-02-10-44-25;10,0;8,0;-100;1,0;2,0;3,0;0,0;row;0,0;False;True;False;1,94900012016;True;1,13100004196
SSF1993w;game;2017-02-02-10-44-25;10,0;9,0;-100;2,0;1,0;3,0;0,0;row;0,0;True;False;True;1,41599988937;True;0,834000110626
SSF1993w;game;2017-02-02-10-44-25;10,0;10,0;-100;3,0;1,0;0,0;2,0;row;1,0;False;False;False;1,54799985886;True;1,0640001297
SSF1993w;game;2017-02-02-10-44-25;10,0;11,0;-100;1,0;3,0;2,0;0,0;column;0,0;True;True;True;1,1139998436;True;0,632999897003
SSF1993w;game;2017-02-02-10-44-25;10,0;12,0;-100;3,0;2,0;0,0;1,0;row;1,0;True;True;True;1,71399998665;True;0,570999860764
SSF1993w;game;2017-02-02-10-44-25;10,0;13,0;-100;1,0;3,0;0,0;2,0;row;1,0;True;False;True;1,58299994469;True;0,631000041962
SSF1993w;game;2017-02-02-10-44-25;10,0;14,0;-100;1,0;0,0;3,0;2,0;row;1,0;True;False;True;1,44799995422;True;0,56500005722
SSF1993w;game;2017-02-02-10-44-25;10,0;15,0;-100;1,0;2,0;0,0;3,0;row;1,0;True;True;True;1,11800003052;True;1,15899991989
SSF1993w;game;2017-02-02-10-44-25;10,0;16,0;-100;3,0;1,0;0,0;2,0;column;0,0;False;True;False;1,81599998474;True;1,49499988556
SSF1993w;game;2017-02-02-10-44-25;10,0;17,0;-100;0,0;2,0;1,0;3,0;column;0,0;False;False;False;2,81699991226;True;1,16000008583
SSF1993w;game;2017-02-02-10-44-25;10,0;18,0;-100;3,0;1,0;2,0;0,0;row;0,0;True;False;True;1,95600008965;True;0,895999908447
SSF1993w;game;2017-02-02-10-44-25;10,0;19,0;-100;3,0;0,0;1,0;2,0;column;1,0;True;False;True;1,31700015068;True;0,731999874115
SSF1993w;game;2017-02-02-10-44-25;10,0;20,0;-100;1,0;0,0;3,0;2,0;column;0,0;False;True;False;1,45000004768;True;1,38899993896
SSF1993w;game;2017-02-02-10-44-25;10,0;21,0;-100;1,0;2,0;3,0;0,0;row;1,0;False;True;False;2,18099999428;True;0,656000137329
SSF1993w;game;2017-02-02-10-44-25;10,0;22,0;-100;0,0;1,0;3,0;2,0;column;0,0;False;False;False;1,81500005722;True;0,735999822617
SSF1993w;game;2017-02-02-10-44-25;10,0;23,0;-100;3,0;2,0;1,0;0,0;row;1,0;False;False;False;2,08399987221;True;0,930999994278
SSF1993w;game;2017-02-02-10-44-25;10,0;24,0;-100;0,0;3,0;2,0;1,0;column;0,0;True;True;True;2,31500005722;True;1,43399977684
SSF1993w;game;2017-02-02-10-44-25;10,0;25,0;-100;2,0;3,0;1,0;0,0;row;1,0;False;True;False;1,34899997711;True;0,730999946594
SSF1993w;game;2017-02-02-10-44-25;10,0;26,0;-100;2,0;0,0;3,0;1,0;column;0,0;False;False;False;2,88300013542;True;0,867999792099
SSF1993w;game;2017-02-02-10-44-25;10,0;27,0;-100;3,0;0,0;2,0;1,0;column;1,0;True;False;True;1,68400001526;True;1,00200009346
SSF1993w;game;2017-02-02-10-44-25;10,0;28,0;-100;1,0;3,0;0,0;2,0;row;1,0;False;True;True;3,04700016975;False;1,47200012207
SSF1993w;game;2017-02-02-10-44-25;10,0;29,0;-100;0,0;3,0;2,0;1,0;row;1,0;False;True;True;1,98099994659;False;1,39800000191
SSF1993w;game;2017-02-02-10-44-25;10,0;30,0;-100;1,0;3,0;0,0;2,0;column;1,0;False;True;False;1,01499986649;True;0,560000181198
SSF1993w;game;2017-02-02-10-44-25;10,0;31,0;-100;0,0;3,0;1,0;2,0;row;0,0;False;False;True;1,04699993134;False;1,3259999752
SSF1993w;game;2017-02-02-10-44-25;10,0;32,0;-100;2,0;0,0;3,0;1,0;row;1,0;True;True;True;2,37300014496;True;0,56200003624
SSF1993w;game;2017-02-02-10-44-25;10,0;33,0;-100;2,0;3,0;1,0;0,0;row;1,0;True;True;True;1,25;True;0,864000082016
SSF1993w;game;2017-02-02-10-44-25;10,0;34,0;-100;0,0;1,0;3,0;2,0;column;1,0;False;False;False;1,11400008202;True;1,16400003433
SSF1993w;game;2017-02-02-10-44-25;10,0;35,0;-100;2,0;1,0;0,0;3,0;row;0,0;True;True;True;1,01699995995;True;1,23500013351
SSF1993w;game;2017-02-02-10-44-25;10,0;36,0;-100;0,0;1,0;3,0;2,0;column;0,0;True;True;True;1,9470000267;True;1,22599983215
SSF1993w;game;2017-02-02-10-44-25;10,0;37,0;-100;1,0;0,0;2,0;3,0;column;1,0;False;True;False;1,51300001144;True;1,3710000515
SSF1993w;game;2017-02-02-10-44-25;10,0;38,0;-100;2,0;0,0;1,0;3,0;column;1,0;False;False;False;1,28299999237;True;1,1970000267
SSF1993w;game;2017-02-02-10-44-25;10,0;39,0;-100;0,0;2,0;1,0;3,0;row;1,0;False;False;False;1,01300001144;True;1,46600008011
SSF1993w;game;2017-02-02-10-44-25;10,0;40,0;-100;3,0;1,0;0,0;2,0;column;1,0;True;False;False;1,54999995232;False;1,1289999485
SSF1993w;game;2017-02-02-10-44-25;10,0;41,0;-100;0,0;2,0;3,0;1,0;column;0,0;False;True;True;1,64900016785;False;1,30200004578
SSF1993w;game;2017-02-02-10-44-25;10,0;42,0;-100;0,0;1,0;3,0;2,0;row;0,0;True;False;True;1,28399991989;True;1,03099989891
SSF1993w;game;2017-02-02-10-44-25;10,0;43,0;-100;2,0;1,0;0,0;3,0;column;1,0;False;True;False;0,917000055313;True;0,96599984169
SSF1993w;game;2017-02-02-10-44-25;10,0;44,0;-100;2,0;1,0;3,0;0,0;column;1,0;True;True;True;1,64899992943;True;0,97000002861
SSF1993w;game;2017-02-02-10-44-25;10,0;45,0;-100;2,0;3,0;0,0;1,0;column;1,0;False;True;False;1,84899997711;True;1,20000004768
SSF1993w;game;2017-02-02-10-44-25;10,0;46,0;-100;2,0;3,0;1,0;0,0;column;1,0;True;False;True;1,44799995422;True;0,93499994278
SSF1993w;game;2017-02-02-10-44-25;10,0;47,0;-100;3,0;0,0;1,0;2,0;row;0,0;True;True;True;1,45000004768;True;0,661000013351
SSF1993w;game;2017-02-02-10-44-25;10,0;48,0;-100;2,0;3,0;0,0;1,0;column;0,0;False;True;False;1,38400006294;True;1,03999996185
SSF1993w;game;2017-02-02-10-44-25;11,0;1,0;100;3,0;1,0;0,0;2,0;row;1,0;True;True;False;1,29999995232;False;1,27300000191
SSF1993w;game;2017-02-02-10-44-25;11,0;2,0;100;2,0;1,0;3,0;0,0;row;0,0;True;True;True;1,06599998474;True;1,10000014305
SSF1993w;game;2017-02-02-10-44-25;11,0;3,0;100;1,0;2,0;0,0;3,0;column;1,0;False;True;False;1,39999985695;True;0,664000034332
SSF1993w;game;2017-02-02-10-44-25;11,0;4,0;100;3,0;1,0;2,0;0,0;column;0,0;False;False;False;1,70000004768;True;0,733999967575
SSF1993w;game;2017-02-02-10-44-25;11,0;5,0;100;2,0;3,0;0,0;1,0;row;1,0;True;True;False;2,7990000248;False;1,52600002289
SSF1993w;game;2017-02-02-10-44-25;11,0;6,0;100;1,0;3,0;0,0;2,0;row;1,0;False;False;False;1,20000004768;True;1,47000002861
SSF1993w;game;2017-02-02-10-44-25;11,0;7,0;100;2,0;3,0;0,0;1,0;column;0,0;False;True;False;1,89899992943;True;0,957000017166
SSF1993w;game;2017-02-02-10-44-25;11,0;8,0;100;2,0;0,0;3,0;1,0;column;0,0;False;False;False;2,10000014305;True;0,62299990654
SSF1993w;game;2017-02-02-10-44-25;11,0;9,0;100;2,0;0,0;3,0;1,0;row;1,0;True;False;True;2,5;True;0,654000043869
SSF1993w;game;2017-02-02-10-44-25;11,0;10,0;100;1,0;0,0;3,0;2,0;column;1,0;True;True;False;1,6970000267;False;0,968999862671
SSF1993w;game;2017-02-02-10-44-25;11,0;11,0;100;3,0;0,0;1,0;2,0;row;0,0;True;False;True;1,23200011253;True;1,33200001717
SSF1993w;game;2017-02-02-10-44-25;11,0;12,0;100;1,0;0,0;2,0;3,0;row;1,0;True;False;True;1,367000103;True;0,658999919891
SSF1993w;game;2017-02-02-10-44-25;11,0;13,0;100;3,0;0,0;2,0;1,0;row;1,0;False;False;False;1,26600003242;True;0,604000091553
SSF1993w;game;2017-02-02-10-44-25;11,0;14,0;100;1,0;2,0;0,0;3,0;column;1,0;True;False;False;1,632999897;False;0,829999923706
SSF1993w;game;2017-02-02-10-44-25;11,0;15,0;100;3,0;1,0;0,0;2,0;row;0,0;False;True;False;2,16599988937;True;1,32299995422
SSF1993w;game;2017-02-02-10-44-25;11,0;16,0;100;2,0;1,0;0,0;3,0;row;1,0;True;True;True;1,29999995232;True;0,898999929428
SSF1993w;game;2017-02-02-10-44-25;11,0;17,0;100;3,0;0,0;1,0;2,0;row;0,0;False;True;False;1,33299994469;True;0,733000040054
SSF1993w;game;2017-02-02-10-44-25;11,0;18,0;100;2,0;3,0;1,0;0,0;column;0,0;False;True;False;2,29999995232;True;0,867000102997
SSF1993w;game;2017-02-02-10-44-25;11,0;19,0;100;1,0;2,0;3,0;0,0;row;1,0;False;False;False;1,09999990463;True;1,43299984932
SSF1993w;game;2017-02-02-10-44-25;11,0;20,0;100;2,0;0,0;1,0;3,0;row;1,0;True;True;True;2,53500008583;True;0,9390001297
SSF1993w;game;2017-02-02-10-44-25;11,0;21,0;100;3,0;1,0;2,0;0,0;column;1,0;False;False;True;1,43299984932;False;1,25600004196
SSF1993w;game;2017-02-02-10-44-25;11,0;22,0;100;1,0;2,0;0,0;3,0;row;1,0;True;True;True;1,40000009537;True;1,26799988747
SSF1993w;game;2017-02-02-10-44-25;11,0;23,0;100;3,0;1,0;2,0;0,0;row;0,0;False;True;True;1,73100018501;False;0,830999851227
SSF1993w;game;2017-02-02-10-44-25;11,0;24,0;100;0,0;2,0;3,0;1,0;row;0,0;False;False;False;1,36599993706;True;1,52799987793
SSF1993w;game;2017-02-02-10-44-25;11,0;25,0;100;3,0;1,0;2,0;0,0;row;1,0;True;False;True;1,36699986458;True;0,759000062943
SSF1993w;game;2017-02-02-10-44-25;11,0;26,0;100;1,0;0,0;2,0;3,0;column;1,0;True;True;True;1,0;True;0,797000169754
SSF1993w;game;2017-02-02-10-44-25;11,0;27,0;100;1,0;3,0;0,0;2,0;column;0,0;True;True;False;0,664999961853;False;0,56500005722
SSF1993w;game;2017-02-02-10-44-25;11,0;28,0;100;0,0;3,0;2,0;1,0;column;1,0;True;True;True;1,26599979401;True;1,13199996948
SSF1993w;game;2017-02-02-10-44-25;11,0;29,0;100;3,0;2,0;0,0;1,0;row;1,0;False;False;False;1,132999897;True;1,40100002289
SSF1993w;game;2017-02-02-10-44-25;11,0;30,0;100;0,0;3,0;1,0;2,0;column;0,0;True;False;False;1,5;False;0,834000110626
SSF1993w;game;2017-02-02-10-44-25;11,0;31,0;100;2,0;1,0;3,0;0,0;column;0,0;True;True;True;2,09800004959;True;1,40100002289
SSF1993w;game;2017-02-02-10-44-25;11,0;32,0;100;0,0;1,0;2,0;3,0;row;0,0;False;False;False;1,66799998283;True;0,799000024796
SSF1993w;game;2017-02-02-10-44-25;11,0;33,0;100;0,0;1,0;2,0;3,0;column;1,0;False;False;False;1,40000009537;True;1,39499998093
SSF1993w;game;2017-02-02-10-44-25;11,0;34,0;100;2,0;3,0;1,0;0,0;column;1,0;True;False;True;1,63400006294;True;0,726999998093
SSF1993w;game;2017-02-02-10-44-25;11,0;35,0;100;1,0;3,0;0,0;2,0;row;1,0;True;False;True;1,26600003242;True;1,00300002098
SSF1993w;game;2017-02-02-10-44-25;11,0;36,0;100;0,0;2,0;1,0;3,0;column;1,0;False;True;False;1,76600003242;True;0,598999977112
SSF1993w;game;2017-02-02-10-44-25;11,0;37,0;100;3,0;1,0;0,0;2,0;row;0,0;True;False;True;1,33400011063;True;0,529000043869
SSF1993w;game;2017-02-02-10-44-25;11,0;38,0;100;2,0;1,0;3,0;0,0;column;1,0;True;False;True;2,36599993706;True;1,09700012207
SSF1993w;game;2017-02-02-10-44-25;11,0;39,0;100;2,0;1,0;0,0;3,0;column;1,0;True;True;False;1,23300004005;False;0,766000032425
SSF1993w;game;2017-02-02-10-44-25;11,0;40,0;100;2,0;1,0;3,0;0,0;column;0,0;False;False;False;1,53299999237;True;1,23600006104
SSF1993w;game;2017-02-02-10-44-25;11,0;41,0;100;2,0;1,0;0,0;3,0;column;1,0;False;True;False;1,09999990463;True;0,726000070572
SSF1993w;game;2017-02-02-10-44-25;11,0;42,0;100;0,0;2,0;3,0;1,0;row;1,0;True;True;True;1,46700000763;True;0,697000026703
SSF1993w;game;2017-02-02-10-44-25;11,0;43,0;100;1,0;0,0;3,0;2,0;row;0,0;True;False;False;0,933000087738;False;0,59700012207
SSF1993w;game;2017-02-02-10-44-25;11,0;44,0;100;3,0;0,0;2,0;1,0;column;1,0;True;False;True;1,56500005722;True;1,0640001297
SSF1993w;game;2017-02-02-10-44-25;11,0;45,0;100;2,0;1,0;0,0;3,0;row;0,0;False;False;False;2,89899992943;True;1,09700012207
SSF1993w;game;2017-02-02-10-44-25;11,0;46,0;100;0,0;3,0;1,0;2,0;column;1,0;True;False;True;1,93400001526;True;0,536000013351
SSF1993w;game;2017-02-02-10-44-25;11,0;47,0;100;3,0;1,0;2,0;0,0;row;1,0;False;True;True;1,39999985695;False;0,672000169754
SSF1993w;game;2017-02-02-10-44-25;11,0;48,0;100;0,0;3,0;2,0;1,0;column;1,0;False;False;False;1,26699995995;True;0,897000074387
SSF1993w;game;2017-02-02-10-44-25;12,0;1,0;1000;3,0;1,0;2,0;0,0;column;0,0;False;True;False;1,03400015831;True;0,689999818802
SSF1993w;game;2017-02-02-10-44-25;12,0;2,0;1000;0,0;2,0;3,0;1,0;column;1,0;False;False;False;1,73200011253;True;0,865999937057
SSF1993w;game;2017-02-02-10-44-25;12,0;3,0;1000;0,0;3,0;2,0;1,0;column;0,0;False;True;True;1,80000019073;False;1,46100020409
SSF1993w;game;2017-02-02-10-44-25;12,0;4,0;1000;0,0;3,0;1,0;2,0;column;0,0;False;True;False;1,60000014305;True;0,529000043869
SSF1993w;game;2017-02-02-10-44-25;12,0;5,0;1000;1,0;3,0;0,0;2,0;row;1,0;False;False;False;1,13300013542;True;1,26999998093
SSF1993w;game;2017-02-02-10-44-25;12,0;6,0;1000;3,0;0,0;1,0;2,0;column;0,0;True;True;True;1,90000009537;True;1,16499996185
SSF1993w;game;2017-02-02-10-44-25;12,0;7,0;1000;3,0;0,0;2,0;1,0;row;0,0;False;False;True;2,13399982452;False;1,10199999809
SSF1993w;game;2017-02-02-10-44-25;12,0;8,0;1000;3,0;0,0;1,0;2,0;row;1,0;True;True;False;1,93300008774;False;1,36899995804
SSF1993w;game;2017-02-02-10-44-25;12,0;9,0;1000;3,0;0,0;2,0;1,0;column;0,0;True;False;True;0,899999856949;True;1,33200001717
SSF1993w;game;2017-02-02-10-44-25;12,0;10,0;1000;0,0;2,0;3,0;1,0;row;0,0;False;True;True;1,23300004005;False;1,26200008392
SSF1993w;game;2017-02-02-10-44-25;12,0;11,0;1000;2,0;1,0;0,0;3,0;column;0,0;False;False;True;0,434000015259;False;0,899999856949
SSF1993w;game;2017-02-02-10-44-25;12,0;12,0;1000;0,0;3,0;2,0;1,0;row;0,0;False;False;True;3,36499977112;False;1,2009999752
SSF1993w;game;2017-02-02-10-44-25;12,0;13,0;1000;3,0;1,0;0,0;2,0;row;0,0;True;False;True;1,69999980927;True;0,792999982834
SSF1993w;game;2017-02-02-10-44-25;12,0;14,0;1000;2,0;0,0;1,0;3,0;row;0,0;True;True;True;0,898999929428;True;1,26099991798
SSF1993w;game;2017-02-02-10-44-25;12,0;15,0;1000;3,0;1,0;2,0;0,0;row;1,0;False;False;True;2,0649998188;False;0,761999845505
SSF1993w;game;2017-02-02-10-44-25;12,0;16,0;1000;2,0;0,0;3,0;1,0;row;0,0;False;True;False;1,40000009537;True;1,40600013733
SSF1993w;game;2017-02-02-10-44-25;12,0;17,0;1000;1,0;0,0;3,0;2,0;row;1,0;False;False;True;1,39999985695;False;1,16500020027
SSF1993w;game;2017-02-02-10-44-25;12,0;18,0;1000;0,0;3,0;2,0;1,0;row;0,0;True;False;True;1,63399982452;True;0,668999910355
SSF1993w;game;2017-02-02-10-44-25;12,0;19,0;1000;2,0;3,0;0,0;1,0;column;0,0;False;False;True;2,0;False;0,628000020981
SSF1993w;game;2017-02-02-10-44-25;12,0;20,0;1000;3,0;0,0;2,0;1,0;row;0,0;True;True;True;1,53100013733;True;0,993000030518
SSF1993w;game;2017-02-02-10-44-25;12,0;21,0;1000;1,0;0,0;3,0;2,0;row;0,0;False;True;False;1,5;True;0,538000106812
SSF1993w;game;2017-02-02-10-44-25;12,0;22,0;1000;2,0;1,0;3,0;0,0;column;0,0;False;True;False;2,06700015068;True;1,46399998665
SSF1993w;game;2017-02-02-10-44-25;12,0;23,0;1000;0,0;1,0;2,0;3,0;column;0,0;True;False;False;1,53299999237;False;0,52999997139
SSF1993w;game;2017-02-02-10-44-25;12,0;24,0;1000;1,0;2,0;3,0;0,0;row;1,0;True;True;True;1,13000011444;True;1,0039999485
SSF1993w;game;2017-02-02-10-44-25;12,0;25,0;1000;2,0;0,0;1,0;3,0;row;1,0;False;False;True;1,19999980927;False;0,665999889374
SSF1993w;game;2017-02-02-10-44-25;12,0;26,0;1000;3,0;2,0;0,0;1,0;column;1,0;True;True;True;1,20000004768;True;1,39499998093
SSF1993w;game;2017-02-02-10-44-25;12,0;27,0;1000;1,0;0,0;2,0;3,0;column;1,0;True;False;False;1,20000004768;False;1,33300018311
SSF1993w;game;2017-02-02-10-44-25;12,0;28,0;1000;0,0;1,0;2,0;3,0;row;1,0;False;True;True;1,16799998283;False;1,46899986267
SSF1993w;game;2017-02-02-10-44-25;12,0;29,0;1000;3,0;1,0;0,0;2,0;column;1,0;True;True;False;0,900000095367;False;1,16400003433
SSF1993w;game;2017-02-02-10-44-25;12,0;30,0;1000;3,0;0,0;1,0;2,0;row;1,0;False;True;False;2,39999985695;True;0,694999933243
SSF1993w;game;2017-02-02-10-44-25;12,0;31,0;1000;3,0;0,0;1,0;2,0;column;1,0;True;True;True;1,76699995995;True;0,996000051498
SSF1993w;game;2017-02-02-10-44-25;12,0;32,0;1000;0,0;2,0;3,0;1,0;row;1,0;True;True;True;1,70199990273;True;0,801999807358
SSF1993w;game;2017-02-02-10-44-25;12,0;33,0;1000;0,0;2,0;1,0;3,0;column;1,0;False;False;True;1,09999990463;False;1,4279999733
SSF1993w;game;2017-02-02-10-44-25;12,0;34,0;1000;1,0;3,0;0,0;2,0;column;0,0;False;False;False;1,33300018311;True;0,662999868393
SSF1993w;game;2017-02-02-10-44-25;12,0;35,0;1000;2,0;3,0;0,0;1,0;row;0,0;False;False;True;1,33299994469;False;1,33099985123
SSF1993w;game;2017-02-02-10-44-25;12,0;36,0;1000;0,0;1,0;2,0;3,0;row;0,0;False;True;False;1,23299980164;True;0,587000131607
SSF1993w;game;2017-02-02-10-44-25;12,0;37,0;1000;0,0;1,0;3,0;2,0;column;0,0;True;False;False;2,06699991226;False;1,10199999809
SSF1993w;game;2017-02-02-10-44-25;12,0;38,0;1000;2,0;3,0;0,0;1,0;row;0,0;True;True;True;1,5;True;0,692999839783
SSF1993w;game;2017-02-02-10-44-25;12,0;39,0;1000;3,0;0,0;1,0;2,0;row;0,0;False;False;True;1,49799990654;False;0,902000188828
SSF1993w;game;2017-02-02-10-44-25;12,0;40,0;1000;0,0;2,0;1,0;3,0;row;1,0;True;False;True;1,93299984932;True;1,27300000191
SSF1993w;game;2017-02-02-10-44-25;12,0;41,0;1000;2,0;1,0;3,0;0,0;column;1,0;True;True;True;1,56699991226;True;1,03799986839
SSF1993w;game;2017-02-02-10-44-25;12,0;42,0;1000;0,0;3,0;1,0;2,0;row;0,0;True;False;True;1,367000103;True;0,730000019073
SSF1993w;game;2017-02-02-10-44-25;12,0;43,0;1000;2,0;3,0;1,0;0,0;row;1,0;False;True;False;1,73099994659;True;1,10099983215
SSF1993w;game;2017-02-02-10-44-25;12,0;44,0;1000;0,0;3,0;1,0;2,0;row;1,0;False;True;False;1,23300004005;True;1,43300008774
SSF1993w;game;2017-02-02-10-44-25;12,0;45,0;1000;0,0;3,0;2,0;1,0;row;1,0;False;False;False;1,76700019836;True;0,667999982834
SSF1993w;game;2017-02-02-10-44-25;12,0;46,0;1000;2,0;0,0;1,0;3,0;row;1,0;True;True;False;1,36400008202;False;1,39999985695
SSF1993w;game;2017-02-02-10-44-25;12,0;47,0;1000;0,0;3,0;1,0;2,0;row;0,0;False;False;True;0,96599984169;False;0,930999994278
SSF1993w;game;2017-02-02-10-44-25;12,0;48,0;1000;3,0;2,0;0,0;1,0;row;1,0;True;False;True;1,2009999752;True;0,657999992371
