Observer;Condition;SessionID;Block;Trial;COA;Color0;Color1;Color2;Color3;Target;Which;Match;FlipComplimentary;Response;RT;Correct;OnsetDelay
TMM90W;game;2017-01-20-12-12-55;1,0;1,0;-100;2,0;0,0;3,0;1,0;row;0,0;True;False;False;2,51699995995;False;0,969000101089
TMM90W;game;2017-01-20-12-12-55;1,0;2,0;-100;2,0;3,0;0,0;1,0;row;1,0;False;True;False;1,61699986458;True;0,56500005722
TMM90W;game;2017-01-20-12-12-55;1,0;3,0;-100;3,0;0,0;2,0;1,0;column;1,0;False;True;False;1,81699991226;True;1,29699993134
TMM90W;game;2017-01-20-12-12-55;1,0;4,0;-100;1,0;2,0;0,0;3,0;column;1,0;False;True;False;1,98299980164;True;1,16400003433
TMM90W;game;2017-01-20-12-12-55;1,0;5,0;-100;0,0;3,0;1,0;2,0;column;0,0;False;True;False;2,48199987411;True;0,893999814987
TMM90W;game;2017-01-20-12-12-55;1,0;6,0;-100;3,0;1,0;0,0;2,0;row;0,0;True;True;True;1,88199996948;True;0,793999910355
TMM90W;game;2017-01-20-12-12-55;1,0;7,0;-100;2,0;3,0;1,0;0,0;column;1,0;True;False;False;1,81699991226;False;0,59500002861
TMM90W;game;2017-01-20-12-12-55;1,0;8,0;-100;0,0;3,0;2,0;1,0;row;0,0;True;True;False;2,18499994278;False;0,634999990463
TMM90W;game;2017-01-20-12-12-55;1,0;9,0;-100;0,0;1,0;2,0;3,0;column;0,0;True;False;False;1,78400015831;False;0,955999851227
TMM90W;game;2017-01-20-12-12-55;1,0;10,0;-100;3,0;0,0;1,0;2,0;row;1,0;False;True;False;1,64999985695;True;1,40100002289
TMM90W;game;2017-01-20-12-12-55;1,0;11,0;-100;2,0;0,0;3,0;1,0;column;0,0;False;True;False;2,61500000954;True;0,934000015259
TMM90W;game;2017-01-20-12-12-55;1,0;12,0;-100;1,0;3,0;2,0;0,0;column;0,0;False;True;False;3,11800003052;True;0,532999992371
TMM90W;game;2017-01-20-12-12-55;1,0;13,0;-100;1,0;3,0;2,0;0,0;row;1,0;False;True;False;1,98300004005;True;1,38900017738
TMM90W;game;2017-01-20-12-12-55;1,0;14,0;-100;3,0;1,0;2,0;0,0;column;1,0;True;False;True;2,55000019073;True;0,700999975204
TMM90W;game;2017-01-20-12-12-55;1,0;15,0;-100;1,0;2,0;3,0;0,0;row;1,0;True;True;True;1,45000004768;True;0,697999954224
TMM90W;game;2017-01-20-12-12-55;1,0;16,0;-100;1,0;0,0;3,0;2,0;column;0,0;False;False;False;2,08200001717;True;0,585999965668
TMM90W;game;2017-01-20-12-12-55;1,0;17,0;-100;0,0;3,0;1,0;2,0;row;1,0;True;True;True;1,74700021744;True;0,596999883652
TMM90W;game;2017-01-20-12-12-55;1,0;18,0;-100;1,0;3,0;2,0;0,0;column;1,0;True;True;True;2,34999990463;True;0,963999986649
TMM90W;game;2017-01-20-12-12-55;1,0;19,0;-100;0,0;1,0;3,0;2,0;column;1,0;False;False;False;1,28200006485;True;1,04200005531
TMM90W;game;2017-01-20-12-12-55;1,0;20,0;-100;0,0;3,0;2,0;1,0;row;0,0;False;True;False;2,0490000248;True;0,863000154495
TMM90W;game;2017-01-20-12-12-55;1,0;21,0;-100;2,0;3,0;0,0;1,0;row;0,0;True;False;True;2,88300013542;True;0,963999986649
TMM90W;game;2017-01-20-12-12-55;1,0;22,0;-100;1,0;0,0;2,0;3,0;row;0,0;True;False;True;2,44899988174;True;0,99799990654
TMM90W;game;2017-01-20-12-12-55;1,0;23,0;-100;0,0;3,0;1,0;2,0;column;0,0;True;True;False;1,85100007057;False;0,633000135422
TMM90W;game;2017-01-20-12-12-55;1,0;24,0;-100;2,0;1,0;0,0;3,0;column;1,0;True;False;False;2,54800009727;False;1,0609998703
TMM90W;game;2017-01-20-12-12-55;1,0;25,0;-100;1,0;2,0;0,0;3,0;row;1,0;True;True;True;2,01300001144;True;0,596999883652
TMM90W;game;2017-01-20-12-12-55;1,0;26,0;-100;3,0;0,0;1,0;2,0;column;0,0;False;True;False;1,64999985695;True;1,26699995995
TMM90W;game;2017-01-20-12-12-55;1,0;27,0;-100;0,0;3,0;2,0;1,0;row;1,0;False;False;False;2,78500008583;True;1,257999897
TMM90W;game;2017-01-20-12-12-55;1,0;28,0;-100;1,0;2,0;3,0;0,0;column;0,0;False;False;False;3,48300004005;True;0,56299996376
TMM90W;game;2017-01-20-12-12-55;1,0;29,0;-100;0,0;3,0;1,0;2,0;column;1,0;True;False;True;1,34599995613;True;0,999000072479
TMM90W;game;2017-01-20-12-12-55;1,0;30,0;-100;3,0;0,0;1,0;2,0;row;0,0;True;False;True;2,94599986076;True;0,763000011444
TMM90W;game;2017-01-20-12-12-55;1,0;31,0;-100;3,0;2,0;0,0;1,0;row;1,0;True;False;True;2,71500015259;True;1,16700005531
TMM90W;game;2017-01-20-12-12-55;1,0;32,0;-100;0,0;1,0;2,0;3,0;column;1,0;True;True;True;1,81699991226;True;1,1899998188
TMM90W;game;2017-01-20-12-12-55;1,0;33,0;-100;0,0;2,0;3,0;1,0;column;0,0;True;False;True;2,08200001717;True;1,36600017548
TMM90W;game;2017-01-20-12-12-55;1,0;34,0;-100;2,0;1,0;0,0;3,0;column;1,0;False;False;False;1,85100007057;True;1,10399985313
TMM90W;game;2017-01-20-12-12-55;1,0;35,0;-100;3,0;2,0;0,0;1,0;row;0,0;True;True;True;2,84999990463;True;1,15600013733
TMM90W;game;2017-01-20-12-12-55;1,0;36,0;-100;1,0;3,0;2,0;0,0;row;1,0;True;True;True;2,77800011635;True;0,602999925613
TMM90W;game;2017-01-20-12-12-55;1,0;37,0;-100;0,0;2,0;3,0;1,0;row;1,0;True;True;False;2,24900007248;False;1,19600009918
TMM90W;game;2017-01-20-12-12-55;1,0;38,0;-100;2,0;0,0;3,0;1,0;column;1,0;False;True;False;2,08299994469;True;0,799999952316
TMM90W;game;2017-01-20-12-12-55;1,0;39,0;-100;2,0;0,0;1,0;3,0;row;0,0;True;False;True;2,21600008011;True;1,2009999752
TMM90W;game;2017-01-20-12-12-55;1,0;40,0;-100;1,0;0,0;2,0;3,0;row;1,0;True;True;False;2,58200001717;False;0,593999862671
TMM90W;game;2017-01-20-12-12-55;1,0;41,0;-100;3,0;2,0;1,0;0,0;column;0,0;True;False;False;1,61699986458;False;0,759999990463
TMM90W;game;2017-01-20-12-12-55;1,0;42,0;-100;2,0;1,0;0,0;3,0;row;0,0;True;True;True;1,71599984169;True;1,43000006676
TMM90W;game;2017-01-20-12-12-55;1,0;43,0;-100;0,0;3,0;2,0;1,0;column;1,0;False;True;False;1,01599979401;True;0,970999956131
TMM90W;game;2017-01-20-12-12-55;1,0;44,0;-100;2,0;3,0;1,0;0,0;row;1,0;False;False;False;2,78299999237;True;1,03099989891
TMM90W;game;2017-01-20-12-12-55;1,0;45,0;-100;3,0;1,0;0,0;2,0;row;1,0;True;False;True;3,08200001717;True;1,22699999809
TMM90W;game;2017-01-20-12-12-55;1,0;46,0;-100;0,0;1,0;3,0;2,0;column;0,0;True;True;True;2,44899988174;True;1,2009999752
TMM90W;game;2017-01-20-12-12-55;1,0;47,0;-100;0,0;1,0;2,0;3,0;column;1,0;False;True;False;3,41599988937;True;1,16799998283
TMM90W;game;2017-01-20-12-12-55;1,0;48,0;-100;1,0;2,0;3,0;0,0;column;0,0;True;False;True;1,34800004959;True;0,90299987793
TMM90W;game;2017-01-20-12-12-55;2,0;1,0;100;1,0;3,0;2,0;0,0;column;1,0;False;False;False;2,69899988174;True;0,913000106812
TMM90W;game;2017-01-20-12-12-55;2,0;2,0;100;0,0;1,0;3,0;2,0;column;0,0;False;True;False;2,13300013542;True;1,20399999619
TMM90W;game;2017-01-20-12-12-55;2,0;3,0;100;2,0;1,0;3,0;0,0;row;1,0;True;True;True;1,5;True;0,934000015259
TMM90W;game;2017-01-20-12-12-55;2,0;4,0;100;0,0;3,0;1,0;2,0;column;1,0;False;False;True;2,06500005722;False;1,33400011063
TMM90W;game;2017-01-20-12-12-55;2,0;5,0;100;0,0;2,0;3,0;1,0;row;1,0;False;False;True;2,16700005531;False;0,52999997139
TMM90W;game;2017-01-20-12-12-55;2,0;6,0;100;2,0;3,0;1,0;0,0;column;0,0;False;True;False;2,0;True;1,12599992752
TMM90W;game;2017-01-20-12-12-55;2,0;7,0;100;2,0;0,0;1,0;3,0;column;1,0;True;False;False;1,93300008774;False;0,696000099182
TMM90W;game;2017-01-20-12-12-55;2,0;8,0;100;1,0;2,0;0,0;3,0;row;1,0;True;False;True;2,36600017548;True;0,594000101089
TMM90W;game;2017-01-20-12-12-55;2,0;9,0;100;0,0;3,0;1,0;2,0;row;1,0;False;True;True;1,29999995232;False;0,664000034332
TMM90W;game;2017-01-20-12-12-55;2,0;10,0;100;0,0;1,0;3,0;2,0;column;1,0;False;True;True;2,26700019836;False;0,925999879837
TMM90W;game;2017-01-20-12-12-55;2,0;11,0;100;0,0;1,0;2,0;3,0;column;1,0;False;False;False;1,79799985886;True;0,803000211716
TMM90W;game;2017-01-20-12-12-55;2,0;12,0;100;1,0;0,0;2,0;3,0;column;1,0;False;False;False;1,80000019073;True;0,796000003815
TMM90W;game;2017-01-20-12-12-55;2,0;13,0;100;2,0;0,0;1,0;3,0;row;0,0;False;True;False;1,63400006294;True;0,535000085831
TMM90W;game;2017-01-20-12-12-55;2,0;14,0;100;0,0;1,0;3,0;2,0;row;1,0;True;True;True;2,73399996758;True;1,39899992943
TMM90W;game;2017-01-20-12-12-55;2,0;15,0;100;1,0;0,0;3,0;2,0;row;1,0;True;False;True;2,09999990463;True;1,29600000381
TMM90W;game;2017-01-20-12-12-55;2,0;16,0;100;1,0;2,0;0,0;3,0;row;1,0;False;True;False;1,69900012016;True;1,09200000763
TMM90W;game;2017-01-20-12-12-55;2,0;17,0;100;1,0;3,0;2,0;0,0;row;0,0;False;False;False;2,26499986649;True;0,789999961853
TMM90W;game;2017-01-20-12-12-55;2,0;18,0;100;0,0;3,0;1,0;2,0;row;0,0;False;True;False;2,36500000954;True;0,665999889374
TMM90W;game;2017-01-20-12-12-55;2,0;19,0;100;0,0;2,0;3,0;1,0;row;1,0;True;False;False;2,39899992943;False;0,633999824524
TMM90W;game;2017-01-20-12-12-55;2,0;20,0;100;3,0;2,0;0,0;1,0;column;1,0;False;True;True;2,40000009537;False;1,26699995995
TMM90W;game;2017-01-20-12-12-55;2,0;21,0;100;2,0;0,0;3,0;1,0;row;0,0;True;False;True;2,66600012779;True;1,49399995804
TMM90W;game;2017-01-20-12-12-55;2,0;22,0;100;1,0;3,0;0,0;2,0;column;0,0;False;False;False;2,90000009537;True;0,696000099182
TMM90W;game;2017-01-20-12-12-55;2,0;23,0;100;0,0;3,0;1,0;2,0;column;1,0;True;True;True;1,66700005531;True;1,22800016403
TMM90W;game;2017-01-20-12-12-55;2,0;24,0;100;3,0;2,0;1,0;0,0;row;1,0;True;False;True;2,76800012589;True;0,894999980927
TMM90W;game;2017-01-20-12-12-55;2,0;25,0;100;0,0;2,0;3,0;1,0;column;1,0;True;False;True;1,76699995995;True;0,759999990463
TMM90W;game;2017-01-20-12-12-55;2,0;26,0;100;2,0;1,0;0,0;3,0;column;0,0;True;True;True;1,39800000191;True;0,530999898911
TMM90W;game;2017-01-20-12-12-55;2,0;27,0;100;3,0;1,0;2,0;0,0;column;1,0;False;True;True;1,93400001526;False;0,526999950409
TMM90W;game;2017-01-20-12-12-55;2,0;28,0;100;1,0;2,0;3,0;0,0;row;0,0;True;True;True;2,09799981117;True;1,33000016212
TMM90W;game;2017-01-20-12-12-55;2,0;29,0;100;0,0;2,0;3,0;1,0;column;0,0;False;True;True;1,62900018692;False;0,964999914169
TMM90W;game;2017-01-20-12-12-55;2,0;30,0;100;2,0;3,0;1,0;0,0;column;1,0;False;False;False;2,56599998474;True;0,858999967575
TMM90W;game;2017-01-20-12-12-55;2,0;31,0;100;0,0;1,0;3,0;2,0;row;0,0;True;False;True;1,89999985695;True;0,969999790192
TMM90W;game;2017-01-20-12-12-55;2,0;32,0;100;3,0;1,0;2,0;0,0;row;1,0;False;False;False;2,06500005722;True;1,42600011826
TMM90W;game;2017-01-20-12-12-55;2,0;33,0;100;3,0;1,0;2,0;0,0;column;1,0;True;True;True;1,93299984932;True;1,0680000782
TMM90W;game;2017-01-20-12-12-55;2,0;34,0;100;0,0;2,0;1,0;3,0;column;1,0;False;True;True;2,52999997139;False;1,06500005722
TMM90W;game;2017-01-20-12-12-55;2,0;35,0;100;0,0;1,0;3,0;2,0;column;0,0;True;False;True;2,20000004768;True;1,39800000191
TMM90W;game;2017-01-20-12-12-55;2,0;36,0;100;3,0;0,0;2,0;1,0;column;0,0;True;False;True;2,9319999218;True;0,761999845505
TMM90W;game;2017-01-20-12-12-55;2,0;37,0;100;3,0;0,0;1,0;2,0;row;1,0;True;False;False;3,79999995232;False;1,43400001526
TMM90W;game;2017-01-20-12-12-55;2,0;38,0;100;3,0;1,0;2,0;0,0;row;0,0;True;False;True;1,26600003242;True;0,861000061035
TMM90W;game;2017-01-20-12-12-55;2,0;39,0;100;2,0;3,0;0,0;1,0;row;1,0;False;False;True;1,26799988747;False;1,46399998665
TMM90W;game;2017-01-20-12-12-55;2,0;40,0;100;3,0;2,0;1,0;0,0;row;1,0;False;True;False;1,76399993896;True;0,763999938965
TMM90W;game;2017-01-20-12-12-55;2,0;41,0;100;3,0;2,0;1,0;0,0;row;0,0;False;True;False;2,13300013542;True;1,43700003624
TMM90W;game;2017-01-20-12-12-55;2,0;42,0;100;1,0;0,0;2,0;3,0;row;1,0;False;False;False;1,09999990463;True;1,29399991035
TMM90W;game;2017-01-20-12-12-55;2,0;43,0;100;0,0;1,0;3,0;2,0;row;1,0;False;False;True;2,03400015831;False;0,792999982834
TMM90W;game;2017-01-20-12-12-55;2,0;44,0;100;1,0;0,0;3,0;2,0;column;1,0;False;False;False;1,43400001526;True;1,23399996758
TMM90W;game;2017-01-20-12-12-55;2,0;45,0;100;1,0;0,0;3,0;2,0;row;0,0;False;True;False;2,20000004768;True;1,13800001144
TMM90W;game;2017-01-20-12-12-55;2,0;46,0;100;1,0;3,0;0,0;2,0;column;1,0;False;True;True;1,367000103;False;0,798000097275
TMM90W;game;2017-01-20-12-12-55;2,0;47,0;100;1,0;2,0;3,0;0,0;column;0,0;True;True;False;1,09800004959;False;1,23600006104
TMM90W;game;2017-01-20-12-12-55;2,0;48,0;100;3,0;1,0;0,0;2,0;row;1,0;True;False;True;1,73299980164;True;1,36400008202
TMM90W;game;2017-01-20-12-12-55;3,0;1,0;1000;0,0;1,0;3,0;2,0;row;1,0;True;False;True;2,96600008011;True;0,861000061035
TMM90W;game;2017-01-20-12-12-55;3,0;2,0;1000;0,0;2,0;1,0;3,0;row;0,0;False;False;False;1,30000019073;True;1,35299992561
TMM90W;game;2017-01-20-12-12-55;3,0;3,0;1000;0,0;1,0;2,0;3,0;column;1,0;False;False;False;2,23099994659;True;1,16100001335
TMM90W;game;2017-01-20-12-12-55;3,0;4,0;1000;0,0;2,0;3,0;1,0;row;1,0;False;False;True;2,76599979401;False;0,699000120163
TMM90W;game;2017-01-20-12-12-55;3,0;5,0;1000;3,0;2,0;0,0;1,0;column;0,0;True;False;True;3,7990000248;True;1,36000013351
TMM90W;game;2017-01-20-12-12-55;3,0;6,0;1000;1,0;0,0;2,0;3,0;column;1,0;False;True;True;2,16399979591;False;0,567000150681
TMM90W;game;2017-01-20-12-12-55;3,0;7,0;1000;3,0;1,0;0,0;2,0;column;0,0;False;False;True;2,96700000763;False;1,36500000954
TMM90W;game;2017-01-20-12-12-55;3,0;8,0;1000;1,0;3,0;2,0;0,0;row;1,0;False;True;False;1,86600017548;True;1,35800004005
TMM90W;game;2017-01-20-12-12-55;3,0;9,0;1000;0,0;2,0;3,0;1,0;column;1,0;True;False;False;1,29899978638;False;0,906000137329
TMM90W;game;2017-01-20-12-12-55;3,0;10,0;1000;3,0;2,0;0,0;1,0;column;0,0;False;True;False;2,13100004196;True;1,23600006104
TMM90W;game;2017-01-20-12-12-55;3,0;11,0;1000;3,0;0,0;2,0;1,0;row;0,0;True;False;True;2,90100002289;True;0,568000078201
TMM90W;game;2017-01-20-12-12-55;3,0;12,0;1000;0,0;1,0;3,0;2,0;column;1,0;False;True;True;1,43099999428;False;1,32700014114
TMM90W;game;2017-01-20-12-12-55;3,0;13,0;1000;2,0;0,0;3,0;1,0;row;0,0;False;False;False;1,53400015831;True;1,49799990654
TMM90W;game;2017-01-20-12-12-55;3,0;14,0;1000;2,0;3,0;1,0;0,0;row;1,0;False;False;False;0,900000095367;True;1,07100009918
TMM90W;game;2017-01-20-12-12-55;3,0;15,0;1000;0,0;2,0;1,0;3,0;column;1,0;False;False;True;1,36599993706;False;1,41999983788
TMM90W;game;2017-01-20-12-12-55;3,0;16,0;1000;2,0;0,0;3,0;1,0;row;1,0;False;False;False;1,43400001526;True;0,925999879837
TMM90W;game;2017-01-20-12-12-55;3,0;17,0;1000;2,0;0,0;1,0;3,0;row;0,0;True;True;False;2,09999990463;False;0,960999965668
TMM90W;game;2017-01-20-12-12-55;3,0;18,0;1000;2,0;0,0;1,0;3,0;column;0,0;True;False;True;1,16600012779;True;1,43600010872
TMM90W;game;2017-01-20-12-12-55;3,0;19,0;1000;2,0;1,0;0,0;3,0;row;0,0;False;True;False;1,29999995232;True;1,02600002289
TMM90W;game;2017-01-20-12-12-55;3,0;20,0;1000;2,0;3,0;1,0;0,0;column;1,0;True;True;False;1,23299980164;False;1,1289999485
TMM90W;game;2017-01-20-12-12-55;3,0;21,0;1000;2,0;1,0;3,0;0,0;column;0,0;True;True;True;2,33299994469;True;1,16799998283
TMM90W;game;2017-01-20-12-12-55;3,0;22,0;1000;1,0;3,0;0,0;2,0;row;0,0;True;True;False;1,96700000763;False;1,43600010872
TMM90W;game;2017-01-20-12-12-55;3,0;23,0;1000;0,0;1,0;2,0;3,0;column;0,0;True;False;True;1,2990000248;True;0,729000091553
TMM90W;game;2017-01-20-12-12-55;3,0;24,0;1000;3,0;2,0;1,0;0,0;column;0,0;True;False;True;0,733000040054;True;0,996999979019
TMM90W;game;2017-01-20-12-12-55;3,0;25,0;1000;3,0;2,0;1,0;0,0;column;0,0;False;False;False;2,43300008774;True;1,33200001717
TMM90W;game;2017-01-20-12-12-55;3,0;26,0;1000;1,0;2,0;3,0;0,0;column;1,0;False;True;True;1,26699995995;False;1,06399989128
TMM90W;game;2017-01-20-12-12-55;3,0;27,0;1000;2,0;1,0;3,0;0,0;row;0,0;True;False;True;1,93099999428;True;0,707000017166
TMM90W;game;2017-01-20-12-12-55;3,0;28,0;1000;0,0;3,0;2,0;1,0;column;0,0;False;False;True;2,13100004196;False;1,46099996567
TMM90W;game;2017-01-20-12-12-55;3,0;29,0;1000;1,0;3,0;2,0;0,0;column;0,0;True;True;True;1,83300018311;True;1,09099984169
TMM90W;game;2017-01-20-12-12-55;3,0;30,0;1000;3,0;1,0;0,0;2,0;column;0,0;True;True;True;2,43299984932;True;1,50300002098
TMM90W;game;2017-01-20-12-12-55;3,0;31,0;1000;3,0;0,0;1,0;2,0;column;1,0;True;True;True;1,5;True;0,863000154495
TMM90W;game;2017-01-20-12-12-55;3,0;32,0;1000;0,0;1,0;3,0;2,0;row;0,0;True;False;False;1,5;False;1,45500016212
TMM90W;game;2017-01-20-12-12-55;3,0;33,0;1000;1,0;3,0;0,0;2,0;column;0,0;True;False;True;1,33299994469;True;0,924999952316
TMM90W;game;2017-01-20-12-12-55;3,0;34,0;1000;1,0;2,0;3,0;0,0;row;0,0;True;True;True;1,7990000248;True;1,26099991798
TMM90W;game;2017-01-20-12-12-55;3,0;35,0;1000;2,0;0,0;3,0;1,0;column;1,0;False;True;False;2,66799998283;True;1,33300018311
TMM90W;game;2017-01-20-12-12-55;3,0;36,0;1000;0,0;1,0;2,0;3,0;row;1,0;True;False;True;1,5;True;0,865999937057
TMM90W;game;2017-01-20-12-12-55;3,0;37,0;1000;3,0;0,0;2,0;1,0;row;1,0;False;False;False;2,2990000248;True;1,26699995995
TMM90W;game;2017-01-20-12-12-55;3,0;38,0;1000;2,0;0,0;1,0;3,0;row;1,0;False;True;False;1,40100002289;True;0,601999998093
TMM90W;game;2017-01-20-12-12-55;3,0;39,0;1000;3,0;0,0;2,0;1,0;row;0,0;False;True;True;1,46700000763;False;1,32500004768
TMM90W;game;2017-01-20-12-12-55;3,0;40,0;1000;0,0;3,0;2,0;1,0;row;1,0;True;True;False;2,23200011253;False;1,06799983978
TMM90W;game;2017-01-20-12-12-55;3,0;41,0;1000;3,0;0,0;1,0;2,0;column;0,0;False;False;True;2,39900016785;False;0,561000108719
TMM90W;game;2017-01-20-12-12-55;3,0;42,0;1000;2,0;3,0;0,0;1,0;row;1,0;True;True;True;1,16599988937;True;1,16700005531
TMM90W;game;2017-01-20-12-12-55;3,0;43,0;1000;3,0;2,0;1,0;0,0;row;0,0;True;True;True;2,367000103;True;1,23699998856
TMM90W;game;2017-01-20-12-12-55;3,0;44,0;1000;3,0;1,0;0,0;2,0;row;0,0;False;True;False;1,29799985886;True;1,53099989891
TMM90W;game;2017-01-20-12-12-55;3,0;45,0;1000;2,0;1,0;0,0;3,0;row;0,0;True;True;True;2,1320002079;True;0,699000120163
TMM90W;game;2017-01-20-12-12-55;3,0;46,0;1000;1,0;0,0;3,0;2,0;column;1,0;True;True;True;2,36400008202;True;0,96799993515
TMM90W;game;2017-01-20-12-12-55;3,0;47,0;1000;3,0;0,0;2,0;1,0;column;1,0;True;True;True;1,63400006294;True;1,36899995804
TMM90W;game;2017-01-20-12-12-55;3,0;48,0;1000;2,0;3,0;1,0;0,0;row;0,0;True;True;True;1,33200001717;True;1,39600014687
TMM90W;game;2017-01-20-12-12-55;4,0;1,0;100;2,0;1,0;3,0;0,0;column;0,0;True;True;True;1,96700000763;True;1,51300001144
TMM90W;game;2017-01-20-12-12-55;4,0;2,0;100;3,0;2,0;0,0;1,0;row;0,0;True;True;False;2,43300008774;False;1,46099996567
TMM90W;game;2017-01-20-12-12-55;4,0;3,0;100;2,0;1,0;3,0;0,0;row;1,0;False;True;False;2,66599988937;True;1,17000007629
TMM90W;game;2017-01-20-12-12-55;4,0;4,0;100;1,0;0,0;2,0;3,0;row;0,0;False;True;False;2,63300013542;True;0,52799987793
TMM90W;game;2017-01-20-12-12-55;4,0;5,0;100;0,0;2,0;3,0;1,0;column;1,0;False;True;False;2,09999990463;True;0,888999938965
TMM90W;game;2017-01-20-12-12-55;4,0;6,0;100;3,0;2,0;1,0;0,0;column;0,0;True;True;False;2,56500005722;False;1,52399992943
TMM90W;game;2017-01-20-12-12-55;4,0;7,0;100;2,0;0,0;3,0;1,0;row;0,0;False;True;False;1,86800003052;True;1,36699986458
TMM90W;game;2017-01-20-12-12-55;4,0;8,0;100;1,0;3,0;2,0;0,0;row;0,0;True;True;True;2,7650001049;True;0,689999818802
TMM90W;game;2017-01-20-12-12-55;4,0;9,0;100;0,0;3,0;2,0;1,0;row;1,0;True;True;True;2,23199987411;True;1,36900019646
TMM90W;game;2017-01-20-12-12-55;4,0;10,0;100;1,0;2,0;0,0;3,0;column;0,0;False;False;False;1,83300018311;True;1,32299995422
TMM90W;game;2017-01-20-12-12-55;4,0;11,0;100;2,0;1,0;0,0;3,0;column;0,0;False;True;False;1,03299999237;True;1,19799995422
TMM90W;game;2017-01-20-12-12-55;4,0;12,0;100;0,0;1,0;3,0;2,0;row;0,0;False;False;False;2,09999990463;True;1,43000006676
TMM90W;game;2017-01-20-12-12-55;4,0;13,0;100;1,0;0,0;3,0;2,0;column;0,0;False;False;True;2,66799998283;False;1,23300004005
TMM90W;game;2017-01-20-12-12-55;4,0;14,0;100;1,0;2,0;0,0;3,0;column;1,0;False;False;False;2,1320002079;True;1,40299987793
TMM90W;game;2017-01-20-12-12-55;4,0;15,0;100;3,0;2,0;1,0;0,0;column;0,0;False;False;False;2,40000009537;True;0,569000005722
TMM90W;game;2017-01-20-12-12-55;4,0;16,0;100;0,0;3,0;2,0;1,0;row;1,0;False;True;False;1,56599998474;True;1,42700004578
TMM90W;game;2017-01-20-12-12-55;4,0;17,0;100;0,0;2,0;1,0;3,0;column;0,0;False;False;False;2,49699997902;True;0,597999811172
TMM90W;game;2017-01-20-12-12-55;4,0;18,0;100;2,0;0,0;1,0;3,0;column;0,0;True;True;True;1,59999990463;True;1,43099999428
TMM90W;game;2017-01-20-12-12-55;4,0;19,0;100;3,0;1,0;0,0;2,0;row;1,0;False;False;True;3,06699991226;False;0,959000110626
TMM90W;game;2017-01-20-12-12-55;4,0;20,0;100;3,0;1,0;2,0;0,0;column;0,0;True;False;True;1,03299999237;True;0,569000005722
TMM90W;game;2017-01-20-12-12-55;4,0;21,0;100;0,0;2,0;3,0;1,0;column;0,0;True;True;True;2,30000019073;True;1,10600018501
TMM90W;game;2017-01-20-12-12-55;4,0;22,0;100;1,0;3,0;0,0;2,0;row;1,0;True;False;False;2,5;False;1,20600008965
TMM90W;game;2017-01-20-12-12-55;4,0;23,0;100;1,0;3,0;2,0;0,0;column;0,0;False;True;False;1,06600022316;True;0,663000106812
TMM90W;game;2017-01-20-12-12-55;4,0;24,0;100;1,0;3,0;0,0;2,0;column;1,0;True;True;True;1,23399996758;True;0,960999965668
TMM90W;game;2017-01-20-12-12-55;4,0;25,0;100;2,0;0,0;1,0;3,0;row;1,0;False;True;False;2,49800014496;True;0,561000108719
TMM90W;game;2017-01-20-12-12-55;4,0;26,0;100;2,0;3,0;0,0;1,0;column;1,0;True;True;True;1,43400001526;True;0,697000026703
TMM90W;game;2017-01-20-12-12-55;4,0;27,0;100;0,0;1,0;2,0;3,0;column;0,0;True;False;True;1,03399991989;True;0,55999994278
TMM90W;game;2017-01-20-12-12-55;4,0;28,0;100;0,0;2,0;3,0;1,0;row;0,0;False;False;True;1,99900007248;False;0,569999933243
TMM90W;game;2017-01-20-12-12-55;4,0;29,0;100;1,0;2,0;3,0;0,0;column;0,0;False;True;False;1,20000004768;True;1,09100008011
TMM90W;game;2017-01-20-12-12-55;4,0;30,0;100;2,0;1,0;0,0;3,0;column;1,0;True;True;False;2,23199987411;False;0,891999959946
TMM90W;game;2017-01-20-12-12-55;4,0;31,0;100;0,0;2,0;3,0;1,0;row;0,0;True;False;True;1,73300004005;True;0,826000213623
TMM90W;game;2017-01-20-12-12-55;4,0;32,0;100;1,0;0,0;2,0;3,0;row;1,0;True;False;False;2,26699995995;False;1,13000011444
TMM90W;game;2017-01-20-12-12-55;4,0;33,0;100;1,0;2,0;3,0;0,0;column;1,0;False;True;False;1,96300005913;True;1,2009999752
TMM90W;game;2017-01-20-12-12-55;4,0;34,0;100;3,0;1,0;2,0;0,0;column;0,0;False;True;False;1,867000103;True;1,02999997139
TMM90W;game;2017-01-20-12-12-55;4,0;35,0;100;0,0;3,0;2,0;1,0;column;0,0;False;False;False;1,86600017548;True;1,25900006294
TMM90W;game;2017-01-20-12-12-55;4,0;36,0;100;1,0;3,0;0,0;2,0;row;0,0;False;True;False;1,96700000763;True;1,39699983597
TMM90W;game;2017-01-20-12-12-55;4,0;37,0;100;3,0;0,0;2,0;1,0;row;1,0;False;True;False;1,73399996758;True;1,4889998436
TMM90W;game;2017-01-20-12-12-55;4,0;38,0;100;1,0;3,0;0,0;2,0;column;0,0;True;False;True;2,69999980927;True;0,693000078201
TMM90W;game;2017-01-20-12-12-55;4,0;39,0;100;1,0;0,0;2,0;3,0;column;1,0;True;True;True;1,36699986458;True;0,868000030518
TMM90W;game;2017-01-20-12-12-55;4,0;40,0;100;3,0;1,0;0,0;2,0;column;0,0;True;True;True;1,93300008774;True;0,866000175476
TMM90W;game;2017-01-20-12-12-55;4,0;41,0;100;1,0;0,0;3,0;2,0;column;0,0;True;True;True;1,06700015068;True;0,601000070572
TMM90W;game;2017-01-20-12-12-55;4,0;42,0;100;0,0;2,0;1,0;3,0;column;0,0;True;True;False;1,66599988937;False;1,5
TMM90W;game;2017-01-20-12-12-55;4,0;43,0;100;3,0;0,0;2,0;1,0;row;0,0;False;False;True;1,66599988937;False;0,837000131607
TMM90W;game;2017-01-20-12-12-55;4,0;44,0;100;0,0;1,0;3,0;2,0;column;1,0;True;True;True;1,23300004005;True;1,28900003433
TMM90W;game;2017-01-20-12-12-55;4,0;45,0;100;3,0;1,0;0,0;2,0;column;0,0;False;False;False;1,53200006485;True;0,826999902725
TMM90W;game;2017-01-20-12-12-55;4,0;46,0;100;3,0;1,0;0,0;2,0;row;0,0;False;True;False;2,03399991989;True;1,39700007439
TMM90W;game;2017-01-20-12-12-55;4,0;47,0;100;2,0;0,0;3,0;1,0;row;1,0;False;True;False;1,60000014305;True;0,871000051498
TMM90W;game;2017-01-20-12-12-55;4,0;48,0;100;2,0;3,0;1,0;0,0;row;0,0;True;True;True;1,7990000248;True;0,800999879837
TMM90W;game;2017-01-20-12-12-55;5,0;1,0;1000;1,0;3,0;0,0;2,0;row;0,0;False;True;False;1,20000004768;True;0,632000207901
TMM90W;game;2017-01-20-12-12-55;5,0;2,0;1000;3,0;1,0;2,0;0,0;column;0,0;False;False;False;1,16600012779;True;0,836999893188
TMM90W;game;2017-01-20-12-12-55;5,0;3,0;1000;0,0;1,0;2,0;3,0;column;0,0;False;False;False;2,73299980164;True;0,892999887466
TMM90W;game;2017-01-20-12-12-55;5,0;4,0;1000;0,0;2,0;3,0;1,0;row;0,0;True;True;True;3,0;True;1,12299990654
TMM90W;game;2017-01-20-12-12-55;5,0;5,0;1000;1,0;2,0;3,0;0,0;column;1,0;True;False;True;1,96599984169;True;1,36599993706
TMM90W;game;2017-01-20-12-12-55;5,0;6,0;1000;0,0;3,0;1,0;2,0;column;1,0;True;False;False;1,93099999428;False;1,09200000763
TMM90W;game;2017-01-20-12-12-55;5,0;7,0;1000;2,0;3,0;0,0;1,0;row;0,0;False;False;False;2,79999995232;True;0,661000013351
TMM90W;game;2017-01-20-12-12-55;5,0;8,0;1000;2,0;1,0;3,0;0,0;column;0,0;False;False;True;1,5;False;0,535000085831
TMM90W;game;2017-01-20-12-12-55;5,0;9,0;1000;0,0;1,0;2,0;3,0;row;0,0;False;True;True;1,7990000248;False;1,09299993515
TMM90W;game;2017-01-20-12-12-55;5,0;10,0;1000;1,0;2,0;3,0;0,0;row;1,0;False;False;False;1,33299994469;True;1,20200014114
TMM90W;game;2017-01-20-12-12-55;5,0;11,0;1000;3,0;1,0;2,0;0,0;column;1,0;True;False;True;1,96700000763;True;1,43400001526
TMM90W;game;2017-01-20-12-12-55;5,0;12,0;1000;1,0;0,0;2,0;3,0;row;1,0;True;True;False;1,96700000763;False;1,02300000191
TMM90W;game;2017-01-20-12-12-55;5,0;13,0;1000;2,0;3,0;0,0;1,0;column;0,0;True;True;False;2,13300013542;False;1,09800004959
TMM90W;game;2017-01-20-12-12-55;5,0;14,0;1000;2,0;1,0;0,0;3,0;column;1,0;False;False;False;1,33299994469;True;1,36800003052
TMM90W;game;2017-01-20-12-12-55;5,0;15,0;1000;0,0;1,0;2,0;3,0;row;0,0;True;False;True;2,2009999752;True;0,696000099182
TMM90W;game;2017-01-20-12-12-55;5,0;16,0;1000;3,0;1,0;2,0;0,0;column;1,0;False;True;False;2,13400006294;True;0,93799996376
TMM90W;game;2017-01-20-12-12-55;5,0;17,0;1000;0,0;2,0;1,0;3,0;column;0,0;True;True;True;1,26699995995;True;0,523000001907
TMM90W;game;2017-01-20-12-12-55;5,0;18,0;1000;0,0;2,0;1,0;3,0;row;1,0;True;False;False;2,13300013542;False;0,703000068665
TMM90W;game;2017-01-20-12-12-55;5,0;19,0;1000;3,0;2,0;1,0;0,0;column;1,0;False;True;False;1,40000009537;True;0,901000022888
TMM90W;game;2017-01-20-12-12-55;5,0;20,0;1000;1,0;2,0;0,0;3,0;row;0,0;True;False;False;1,63300013542;False;1,16200017929
TMM90W;game;2017-01-20-12-12-55;5,0;21,0;1000;2,0;1,0;0,0;3,0;column;0,0;True;False;True;1,5;True;1,06100010872
TMM90W;game;2017-01-20-12-12-55;5,0;22,0;1000;2,0;0,0;3,0;1,0;column;0,0;False;False;False;1,7009999752;True;0,601999998093
TMM90W;game;2017-01-20-12-12-55;5,0;23,0;1000;3,0;1,0;0,0;2,0;column;1,0;True;False;True;1,93300008774;True;1,26300001144
TMM90W;game;2017-01-20-12-12-55;5,0;24,0;1000;2,0;0,0;1,0;3,0;column;0,0;False;False;False;1,83299994469;True;0,689999818802
TMM90W;game;2017-01-20-12-12-55;5,0;25,0;1000;3,0;2,0;1,0;0,0;row;1,0;True;False;True;1,46700000763;True;1,43300008774
TMM90W;game;2017-01-20-12-12-55;5,0;26,0;1000;3,0;1,0;0,0;2,0;column;1,0;False;False;False;1,39999985695;True;0,928999900818
TMM90W;game;2017-01-20-12-12-55;5,0;27,0;1000;2,0;1,0;0,0;3,0;row;1,0;False;True;False;1,79999995232;True;1,30700016022
TMM90W;game;2017-01-20-12-12-55;5,0;28,0;1000;0,0;3,0;1,0;2,0;row;0,0;False;True;True;1,73399996758;False;0,597999811172
TMM90W;game;2017-01-20-12-12-55;5,0;29,0;1000;0,0;2,0;3,0;1,0;column;1,0;False;True;False;1,03299999237;True;0,526999950409
TMM90W;game;2017-01-20-12-12-55;5,0;30,0;1000;0,0;3,0;1,0;2,0;column;0,0;False;True;False;2,0;True;0,803999900818
TMM90W;game;2017-01-20-12-12-55;5,0;31,0;1000;2,0;1,0;3,0;0,0;row;0,0;False;False;True;1,46599984169;False;1,19800019264
TMM90W;game;2017-01-20-12-12-55;5,0;32,0;1000;3,0;0,0;1,0;2,0;column;1,0;False;False;False;0,864000082016;True;0,570000171661
TMM90W;game;2017-01-20-12-12-55;5,0;33,0;1000;1,0;0,0;3,0;2,0;row;0,0;True;False;False;3,69999980927;False;0,556999921799
TMM90W;game;2017-01-20-12-12-55;5,0;34,0;1000;2,0;0,0;1,0;3,0;row;0,0;False;True;True;1,06699991226;False;0,866000175476
TMM90W;game;2017-01-20-12-12-55;5,0;35,0;1000;2,0;1,0;3,0;0,0;column;1,0;False;False;False;1,46599984169;True;0,800999879837
TMM90W;game;2017-01-20-12-12-55;5,0;36,0;1000;0,0;1,0;3,0;2,0;column;1,0;True;False;True;1,53299999237;True;1,06200003624
TMM90W;game;2017-01-20-12-12-55;5,0;37,0;1000;0,0;2,0;1,0;3,0;row;0,0;True;False;True;2,66599988937;True;0,890000104904
TMM90W;game;2017-01-20-12-12-55;5,0;38,0;1000;2,0;3,0;0,0;1,0;row;1,0;False;True;False;1,79999995232;True;1,16299986839
TMM90W;game;2017-01-20-12-12-55;5,0;39,0;1000;1,0;0,0;2,0;3,0;row;1,0;False;True;True;1,16700005531;False;1,03399991989
TMM90W;game;2017-01-20-12-12-55;5,0;40,0;1000;1,0;0,0;3,0;2,0;column;0,0;True;True;False;1,53400015831;False;1,3900001049
TMM90W;game;2017-01-20-12-12-55;5,0;41,0;1000;0,0;3,0;2,0;1,0;column;1,0;False;False;False;1,5;True;0,799999952316
TMM90W;game;2017-01-20-12-12-55;5,0;42,0;1000;2,0;1,0;0,0;3,0;column;1,0;True;False;True;0,932999849319;True;0,567999839783
TMM90W;game;2017-01-20-12-12-55;5,0;43,0;1000;3,0;1,0;2,0;0,0;column;0,0;True;True;True;1,86500000954;True;0,621999979019
TMM90W;game;2017-01-20-12-12-55;5,0;44,0;1000;3,0;2,0;0,0;1,0;row;1,0;False;True;False;1,23399996758;True;1,36500000954
TMM90W;game;2017-01-20-12-12-55;5,0;45,0;1000;2,0;1,0;3,0;0,0;column;1,0;True;False;False;1,83299994469;False;0,605000019073
TMM90W;game;2017-01-20-12-12-55;5,0;46,0;1000;0,0;3,0;1,0;2,0;column;1,0;False;True;False;1,79799985886;True;1,23600006104
TMM90W;game;2017-01-20-12-12-55;5,0;47,0;1000;0,0;2,0;1,0;3,0;column;1,0;True;True;True;1,30100011826;True;0,826999902725
TMM90W;game;2017-01-20-12-12-55;5,0;48,0;1000;0,0;3,0;2,0;1,0;row;1,0;False;False;False;1,79899978638;True;0,56200003624
TMM90W;game;2017-01-20-12-12-55;6,0;1,0;-100;3,0;0,0;1,0;2,0;column;0,0;True;False;False;1,25100016594;False;0,763000011444
TMM90W;game;2017-01-20-12-12-55;6,0;2,0;-100;3,0;1,0;0,0;2,0;row;0,0;False;False;False;1,98000001907;True;1,43200016022
TMM90W;game;2017-01-20-12-12-55;6,0;3,0;-100;3,0;0,0;2,0;1,0;column;0,0;True;False;False;2,05099987984;False;1,17200016975
TMM90W;game;2017-01-20-12-12-55;6,0;4,0;-100;2,0;3,0;0,0;1,0;column;0,0;False;True;False;1,84899997711;True;1,39600014687
TMM90W;game;2017-01-20-12-12-55;6,0;5,0;-100;2,0;1,0;3,0;0,0;row;1,0;False;False;False;1,68400001526;True;0,893999814987
TMM90W;game;2017-01-20-12-12-55;6,0;6,0;-100;3,0;0,0;1,0;2,0;column;1,0;True;True;False;2,21499991417;False;0,930000066757
TMM90W;game;2017-01-20-12-12-55;6,0;7,0;-100;3,0;2,0;1,0;0,0;column;1,0;False;False;True;0,983000040054;False;0,668000221252
TMM90W;game;2017-01-20-12-12-55;6,0;8,0;-100;3,0;0,0;2,0;1,0;row;1,0;True;True;False;1,18300008774;False;1,40200018883
TMM90W;game;2017-01-20-12-12-55;6,0;9,0;-100;2,0;0,0;3,0;1,0;row;0,0;False;False;True;1,71500015259;False;0,90499997139
TMM90W;game;2017-01-20-12-12-55;6,0;10,0;-100;1,0;0,0;3,0;2,0;row;0,0;False;True;False;2,11600017548;True;1,0039999485
TMM90W;game;2017-01-20-12-12-55;6,0;11,0;-100;1,0;3,0;0,0;2,0;column;1,0;True;False;True;1,882999897;True;1,4279999733
TMM90W;game;2017-01-20-12-12-55;6,0;12,0;-100;0,0;3,0;2,0;1,0;column;1,0;True;False;True;2,08400011063;True;1,33299994469
TMM90W;game;2017-01-20-12-12-55;6,0;13,0;-100;3,0;0,0;1,0;2,0;row;1,0;True;True;False;1,28299999237;False;0,771000146866
TMM90W;game;2017-01-20-12-12-55;6,0;14,0;-100;3,0;0,0;2,0;1,0;column;1,0;True;True;True;1,14999985695;True;0,893000125885
TMM90W;game;2017-01-20-12-12-55;6,0;15,0;-100;3,0;1,0;0,0;2,0;column;0,0;False;False;False;1,51700019836;True;1,49000000954
TMM90W;game;2017-01-20-12-12-55;6,0;16,0;-100;1,0;3,0;0,0;2,0;column;0,0;True;True;True;1,38399982452;True;0,755999803543
TMM90W;game;2017-01-20-12-12-55;6,0;17,0;-100;1,0;2,0;0,0;3,0;column;0,0;False;False;False;1,54999995232;True;1,39900016785
TMM90W;game;2017-01-20-12-12-55;6,0;18,0;-100;2,0;3,0;0,0;1,0;column;0,0;True;True;False;1,91799998283;False;0,958999872208
TMM90W;game;2017-01-20-12-12-55;6,0;19,0;-100;0,0;1,0;3,0;2,0;row;1,0;False;False;True;1,24699997902;False;0,621999979019
TMM90W;game;2017-01-20-12-12-55;6,0;20,0;-100;2,0;3,0;0,0;1,0;column;1,0;True;True;False;1,31699991226;False;0,727999925613
TMM90W;game;2017-01-20-12-12-55;6,0;21,0;-100;3,0;1,0;2,0;0,0;row;0,0;False;False;False;1,71700000763;True;0,790000200272
TMM90W;game;2017-01-20-12-12-55;6,0;22,0;-100;1,0;3,0;2,0;0,0;column;0,0;True;True;False;1,3140001297;False;0,858999967575
TMM90W;game;2017-01-20-12-12-55;6,0;23,0;-100;0,0;1,0;2,0;3,0;row;1,0;True;True;True;1,41700005531;True;1,00600004196
TMM90W;game;2017-01-20-12-12-55;6,0;24,0;-100;2,0;0,0;1,0;3,0;column;0,0;False;True;False;1,48199987411;True;0,732000112534
TMM90W;game;2017-01-20-12-12-55;6,0;25,0;-100;2,0;1,0;0,0;3,0;row;0,0;False;True;False;1,45000004768;True;0,72400021553
TMM90W;game;2017-01-20-12-12-55;6,0;26,0;-100;3,0;2,0;1,0;0,0;row;0,0;True;True;True;1,41700005531;True;1,26799988747
TMM90W;game;2017-01-20-12-12-55;6,0;27,0;-100;0,0;3,0;1,0;2,0;column;1,0;False;False;False;1,81500005722;True;1,1289999485
TMM90W;game;2017-01-20-12-12-55;6,0;28,0;-100;2,0;0,0;3,0;1,0;column;0,0;True;True;True;1,28399991989;True;0,667000055313
TMM90W;game;2017-01-20-12-12-55;6,0;29,0;-100;3,0;1,0;2,0;0,0;row;0,0;True;False;True;1,54999995232;True;1,09899997711
TMM90W;game;2017-01-20-12-12-55;6,0;30,0;-100;3,0;2,0;1,0;0,0;column;0,0;False;True;False;1,58200001717;True;1,13199996948
TMM90W;game;2017-01-20-12-12-55;6,0;31,0;-100;3,0;1,0;0,0;2,0;column;0,0;True;True;True;1,51499986649;True;1,16700005531
TMM90W;game;2017-01-20-12-12-55;6,0;32,0;-100;2,0;0,0;1,0;3,0;row;1,0;False;True;False;0,983999967575;True;0,894000053406
TMM90W;game;2017-01-20-12-12-55;6,0;33,0;-100;0,0;1,0;3,0;2,0;row;0,0;True;False;True;1,41700005531;True;0,802999973297
TMM90W;game;2017-01-20-12-12-55;6,0;34,0;-100;3,0;2,0;1,0;0,0;row;1,0;True;True;False;1,28399991989;False;0,571000099182
TMM90W;game;2017-01-20-12-12-55;6,0;35,0;-100;0,0;2,0;1,0;3,0;column;1,0;False;True;False;2,11599993706;True;1,12800002098
TMM90W;game;2017-01-20-12-12-55;6,0;36,0;-100;0,0;3,0;2,0;1,0;column;0,0;True;False;True;1,11400008202;True;0,603999853134
TMM90W;game;2017-01-20-12-12-55;6,0;37,0;-100;2,0;3,0;0,0;1,0;row;0,0;False;False;False;1,54699993134;True;1,28999996185
TMM90W;game;2017-01-20-12-12-55;6,0;38,0;-100;2,0;1,0;0,0;3,0;column;0,0;True;True;True;1,01700019836;True;0,556999921799
TMM90W;game;2017-01-20-12-12-55;6,0;39,0;-100;0,0;1,0;3,0;2,0;column;1,0;True;True;False;1,48399996758;False;0,657999992371
TMM90W;game;2017-01-20-12-12-55;6,0;40,0;-100;0,0;1,0;3,0;2,0;column;0,0;False;True;True;1,14999985695;False;0,671000003815
TMM90W;game;2017-01-20-12-12-55;6,0;41,0;-100;0,0;2,0;1,0;3,0;column;0,0;True;False;True;0,914999961853;True;0,836000204086
TMM90W;game;2017-01-20-12-12-55;6,0;42,0;-100;1,0;0,0;2,0;3,0;column;1,0;False;False;False;1,21599984169;True;1,12299990654
TMM90W;game;2017-01-20-12-12-55;6,0;43,0;-100;2,0;0,0;1,0;3,0;column;1,0;True;False;False;2,21400022507;False;1,33499979973
TMM90W;game;2017-01-20-12-12-55;6,0;44,0;-100;1,0;0,0;2,0;3,0;row;0,0;False;False;True;1,81700015068;False;0,52999997139
TMM90W;game;2017-01-20-12-12-55;6,0;45,0;-100;3,0;1,0;0,0;2,0;row;1,0;False;False;False;1,4470000267;True;1,07100009918
TMM90W;game;2017-01-20-12-12-55;6,0;46,0;-100;0,0;1,0;3,0;2,0;row;0,0;False;True;False;1,34899997711;True;1,16299986839
TMM90W;game;2017-01-20-12-12-55;6,0;47,0;-100;1,0;0,0;3,0;2,0;column;0,0;True;True;True;1,98300004005;True;1,02600002289
TMM90W;game;2017-01-20-12-12-55;6,0;48,0;-100;2,0;0,0;1,0;3,0;row;1,0;True;False;True;3,48199987411;True;1,25699996948
TMM90W;game;2017-01-20-12-12-55;7,0;1,0;-100;0,0;2,0;3,0;1,0;column;1,0;False;True;False;1,95000004768;True;1,05200004578
TMM90W;game;2017-01-20-12-12-55;7,0;2,0;-100;1,0;2,0;3,0;0,0;column;1,0;True;False;True;1,68399977684;True;0,526999950409
TMM90W;game;2017-01-20-12-12-55;7,0;3,0;-100;3,0;2,0;1,0;0,0;row;1,0;False;True;False;1,88400006294;True;0,862999916077
TMM90W;game;2017-01-20-12-12-55;7,0;4,0;-100;2,0;1,0;3,0;0,0;row;0,0;True;False;False;2,78399991989;False;0,696000099182
TMM90W;game;2017-01-20-12-12-55;7,0;5,0;-100;1,0;0,0;2,0;3,0;column;0,0;True;True;True;0,950000047684;True;0,901000022888
TMM90W;game;2017-01-20-12-12-55;7,0;6,0;-100;2,0;0,0;3,0;1,0;row;1,0;False;True;False;0,917000055313;True;0,861999988556
TMM90W;game;2017-01-20-12-12-55;7,0;7,0;-100;0,0;2,0;1,0;3,0;row;1,0;False;True;False;1,01600003242;True;1,46599984169
TMM90W;game;2017-01-20-12-12-55;7,0;8,0;-100;2,0;1,0;3,0;0,0;column;1,0;False;True;False;1,45000004768;True;0,859999895096
TMM90W;game;2017-01-20-12-12-55;7,0;9,0;-100;1,0;2,0;0,0;3,0;row;1,0;False;True;False;1,51600003242;True;0,730999946594
TMM90W;game;2017-01-20-12-12-55;7,0;10,0;-100;1,0;3,0;0,0;2,0;row;0,0;True;True;True;1,28299999237;True;1,23600006104
TMM90W;game;2017-01-20-12-12-55;7,0;11,0;-100;3,0;2,0;0,0;1,0;column;0,0;False;True;False;1,05099987984;True;1,49799990654
TMM90W;game;2017-01-20-12-12-55;7,0;12,0;-100;3,0;1,0;2,0;0,0;row;1,0;False;True;False;1,68299984932;True;1,23600006104
TMM90W;game;2017-01-20-12-12-55;7,0;13,0;-100;1,0;0,0;3,0;2,0;column;1,0;True;False;True;1,88300013542;True;1,40400004387
TMM90W;game;2017-01-20-12-12-55;7,0;14,0;-100;0,0;1,0;2,0;3,0;column;0,0;False;False;False;1,38099980354;True;1,2650001049
TMM90W;game;2017-01-20-12-12-55;7,0;15,0;-100;2,0;1,0;0,0;3,0;row;1,0;False;False;False;1,94900012016;True;0,532999992371
TMM90W;game;2017-01-20-12-12-55;7,0;16,0;-100;2,0;1,0;0,0;3,0;row;1,0;True;True;False;1,77999997139;False;0,903000116348
TMM90W;game;2017-01-20-12-12-55;7,0;17,0;-100;1,0;3,0;0,0;2,0;column;0,0;False;False;False;1,01699995995;True;0,600000143051
TMM90W;game;2017-01-20-12-12-55;7,0;18,0;-100;2,0;3,0;1,0;0,0;column;0,0;False;False;False;1,0150001049;True;1,26699995995
TMM90W;game;2017-01-20-12-12-55;7,0;19,0;-100;1,0;2,0;0,0;3,0;row;0,0;True;True;True;1,98199987411;True;0,62099981308
TMM90W;game;2017-01-20-12-12-55;7,0;20,0;-100;3,0;0,0;2,0;1,0;row;0,0;True;False;True;1,31699991226;True;0,598999977112
TMM90W;game;2017-01-20-12-12-55;7,0;21,0;-100;0,0;1,0;2,0;3,0;row;0,0;True;False;True;2,08300018311;True;1,29600000381
TMM90W;game;2017-01-20-12-12-55;7,0;22,0;-100;1,0;3,0;0,0;2,0;row;1,0;True;True;False;1,8140001297;False;0,865000009537
TMM90W;game;2017-01-20-12-12-55;7,0;23,0;-100;2,0;3,0;1,0;0,0;column;1,0;False;False;False;1,54699993134;True;0,695999860764
TMM90W;game;2017-01-20-12-12-55;7,0;24,0;-100;2,0;3,0;1,0;0,0;row;1,0;True;False;False;1,91700005531;False;1,15400004387
TMM90W;game;2017-01-20-12-12-55;7,0;25,0;-100;3,0;0,0;2,0;1,0;row;0,0;False;True;False;1,18399977684;True;1,33500003815
TMM90W;game;2017-01-20-12-12-55;7,0;26,0;-100;0,0;2,0;1,0;3,0;row;0,0;True;False;True;1,21599984169;True;1,03400015831
TMM90W;game;2017-01-20-12-12-55;7,0;27,0;-100;2,0;1,0;0,0;3,0;column;0,0;False;True;True;1,21800017357;False;1,25699996948
TMM90W;game;2017-01-20-12-12-55;7,0;28,0;-100;2,0;1,0;3,0;0,0;column;0,0;False;False;False;1,34899997711;True;1,09500002861
TMM90W;game;2017-01-20-12-12-55;7,0;29,0;-100;2,0;3,0;0,0;1,0;row;1,0;True;False;False;1,04999995232;False;1,16499996185
TMM90W;game;2017-01-20-12-12-55;7,0;30,0;-100;3,0;0,0;1,0;2,0;column;1,0;False;False;False;1,01499986649;True;1,13100004196
TMM90W;game;2017-01-20-12-12-55;7,0;31,0;-100;1,0;3,0;2,0;0,0;row;0,0;False;False;False;1,617000103;True;1,30599999428
TMM90W;game;2017-01-20-12-12-55;7,0;32,0;-100;3,0;2,0;0,0;1,0;column;1,0;False;False;False;1,44999980927;True;1,36200022697
TMM90W;game;2017-01-20-12-12-55;7,0;33,0;-100;3,0;0,0;1,0;2,0;row;0,0;False;True;False;1,54800009727;True;0,566999912262
TMM90W;game;2017-01-20-12-12-55;7,0;34,0;-100;3,0;2,0;0,0;1,0;row;0,0;False;True;False;1,51600003242;True;0,699000120163
TMM90W;game;2017-01-20-12-12-55;7,0;35,0;-100;3,0;1,0;2,0;0,0;column;0,0;True;True;True;0,848000049591;True;0,735000133514
TMM90W;game;2017-01-20-12-12-55;7,0;36,0;-100;1,0;3,0;0,0;2,0;row;0,0;False;False;False;1,34999990463;True;0,557999849319
TMM90W;game;2017-01-20-12-12-55;7,0;37,0;-100;3,0;0,0;2,0;1,0;row;1,0;False;True;False;2,54799985886;True;0,536000013351
TMM90W;game;2017-01-20-12-12-55;7,0;38,0;-100;1,0;3,0;2,0;0,0;column;1,0;False;True;True;1,28099989891;False;0,899000167847
TMM90W;game;2017-01-20-12-12-55;7,0;39,0;-100;1,0;0,0;2,0;3,0;column;0,0;False;True;False;0,983000040054;True;1,29699993134
TMM90W;game;2017-01-20-12-12-55;7,0;40,0;-100;1,0;0,0;3,0;2,0;column;1,0;False;True;False;1,44999980927;True;1,06399989128
TMM90W;game;2017-01-20-12-12-55;7,0;41,0;-100;1,0;0,0;2,0;3,0;row;1,0;False;True;False;1,51600003242;True;1,16100001335
TMM90W;game;2017-01-20-12-12-55;7,0;42,0;-100;3,0;2,0;0,0;1,0;row;1,0;False;False;False;1,58299994469;True;0,53400015831
TMM90W;game;2017-01-20-12-12-55;7,0;43,0;-100;2,0;1,0;3,0;0,0;row;0,0;False;True;False;1,64999985695;True;1,13499999046
TMM90W;game;2017-01-20-12-12-55;7,0;44,0;-100;2,0;0,0;3,0;1,0;row;1,0;True;True;False;1,382999897;False;1,10199999809
TMM90W;game;2017-01-20-12-12-55;7,0;45,0;-100;2,0;3,0;1,0;0,0;row;0,0;False;False;False;2,17899990082;True;1,49799990654
TMM90W;game;2017-01-20-12-12-55;7,0;46,0;-100;2,0;0,0;1,0;3,0;column;1,0;False;True;False;1,617000103;True;1,06399989128
TMM90W;game;2017-01-20-12-12-55;7,0;47,0;-100;1,0;2,0;3,0;0,0;row;1,0;False;False;False;2,31500005722;True;1,16700005531
TMM90W;game;2017-01-20-12-12-55;7,0;48,0;-100;2,0;0,0;1,0;3,0;row;0,0;False;False;False;1,21800017357;True;1,17199993134
TMM90W;game;2017-01-20-12-12-55;8,0;1,0;1000;3,0;1,0;0,0;2,0;row;1,0;False;True;False;2,03299999237;True;1,48199987411
TMM90W;game;2017-01-20-12-12-55;8,0;2,0;1000;3,0;2,0;0,0;1,0;column;1,0;True;False;False;1,86599993706;False;0,995000123978
TMM90W;game;2017-01-20-12-12-55;8,0;3,0;1000;3,0;1,0;0,0;2,0;row;1,0;True;True;True;1,367000103;True;0,998999834061
TMM90W;game;2017-01-20-12-12-55;8,0;4,0;1000;3,0;1,0;2,0;0,0;row;0,0;False;False;False;1,96600008011;True;0,667000055313
TMM90W;game;2017-01-20-12-12-55;8,0;5,0;1000;1,0;3,0;2,0;0,0;column;1,0;False;True;False;1,7009999752;True;0,595999956131
TMM90W;game;2017-01-20-12-12-55;8,0;6,0;1000;1,0;3,0;0,0;2,0;row;1,0;False;True;False;2,0;True;1,13100004196
TMM90W;game;2017-01-20-12-12-55;8,0;7,0;1000;2,0;0,0;3,0;1,0;row;0,0;True;True;True;1,79799985886;True;0,832999944687
TMM90W;game;2017-01-20-12-12-55;8,0;8,0;1000;1,0;2,0;0,0;3,0;row;1,0;True;False;False;1,40100002289;False;1,22799992561
TMM90W;game;2017-01-20-12-12-55;8,0;9,0;1000;1,0;0,0;3,0;2,0;row;1,0;False;False;False;1,33200001717;True;0,968999862671
TMM90W;game;2017-01-20-12-12-55;8,0;10,0;1000;1,0;3,0;0,0;2,0;row;1,0;True;False;True;2,56700015068;True;1,06999993324
TMM90W;game;2017-01-20-12-12-55;8,0;11,0;1000;2,0;1,0;0,0;3,0;row;1,0;True;True;False;0,999000072479;False;1,09800004959
TMM90W;game;2017-01-20-12-12-55;8,0;12,0;1000;1,0;2,0;0,0;3,0;column;0,0;False;True;False;2,70000004768;True;1,49800014496
TMM90W;game;2017-01-20-12-12-55;8,0;13,0;1000;2,0;1,0;0,0;3,0;column;0,0;False;True;False;2,19900012016;True;1,27200007439
TMM90W;game;2017-01-20-12-12-55;8,0;14,0;1000;1,0;0,0;2,0;3,0;row;0,0;False;True;True;1,33300018311;False;0,828999996185
TMM90W;game;2017-01-20-12-12-55;8,0;15,0;1000;3,0;0,0;2,0;1,0;column;1,0;False;True;False;1,53299999237;True;1,19099998474
TMM90W;game;2017-01-20-12-12-55;8,0;16,0;1000;1,0;3,0;2,0;0,0;row;0,0;True;True;True;1,86400008202;True;1,4399998188
TMM90W;game;2017-01-20-12-12-55;8,0;17,0;1000;3,0;2,0;0,0;1,0;row;0,0;False;True;False;2,80099987984;True;0,629999876022
TMM90W;game;2017-01-20-12-12-55;8,0;18,0;1000;1,0;0,0;2,0;3,0;column;0,0;False;False;False;1,56599998474;True;0,929999828339
TMM90W;game;2017-01-20-12-12-55;8,0;19,0;1000;2,0;0,0;1,0;3,0;column;1,0;False;False;False;1,26699995995;True;0,996000051498
TMM90W;game;2017-01-20-12-12-55;8,0;20,0;1000;3,0;2,0;1,0;0,0;column;1,0;True;True;False;1,29999995232;False;1,29999995232
TMM90W;game;2017-01-20-12-12-55;8,0;21,0;1000;1,0;0,0;3,0;2,0;row;1,0;True;False;True;1,99900007248;True;1,03699994087
TMM90W;game;2017-01-20-12-12-55;8,0;22,0;1000;1,0;2,0;0,0;3,0;row;1,0;False;True;False;1,89899992943;True;0,959000110626
TMM90W;game;2017-01-20-12-12-55;8,0;23,0;1000;3,0;1,0;2,0;0,0;row;0,0;True;False;True;1,96700000763;True;0,938999891281
TMM90W;game;2017-01-20-12-12-55;8,0;24,0;1000;1,0;2,0;0,0;3,0;column;1,0;True;False;True;1,96700000763;True;1,30200004578
TMM90W;game;2017-01-20-12-12-55;8,0;25,0;1000;2,0;1,0;3,0;0,0;row;1,0;True;True;True;2,66699981689;True;1,46700000763
TMM90W;game;2017-01-20-12-12-55;8,0;26,0;1000;1,0;3,0;0,0;2,0;column;1,0;False;False;False;2,26699995995;True;0,930999994278
TMM90W;game;2017-01-20-12-12-55;8,0;27,0;1000;2,0;3,0;1,0;0,0;column;1,0;False;False;False;2,09999990463;True;1,46499991417
TMM90W;game;2017-01-20-12-12-55;8,0;28,0;1000;3,0;2,0;0,0;1,0;column;1,0;False;False;False;2,29999995232;True;1,17100000381
TMM90W;game;2017-01-20-12-12-55;8,0;29,0;1000;0,0;1,0;3,0;2,0;row;0,0;False;True;False;2,19799995422;True;1,16799998283
TMM90W;game;2017-01-20-12-12-55;8,0;30,0;1000;3,0;0,0;1,0;2,0;row;0,0;True;True;True;1,06700015068;True;0,891999959946
TMM90W;game;2017-01-20-12-12-55;8,0;31,0;1000;3,0;0,0;2,0;1,0;column;0,0;True;False;True;2,5;True;1,03299999237
TMM90W;game;2017-01-20-12-12-55;8,0;32,0;1000;2,0;3,0;1,0;0,0;row;0,0;False;False;False;1,73399996758;True;0,936000108719
TMM90W;game;2017-01-20-12-12-55;8,0;33,0;1000;3,0;0,0;2,0;1,0;column;0,0;False;False;True;2,79999995232;False;1,19400000572
TMM90W;game;2017-01-20-12-12-55;8,0;34,0;1000;1,0;3,0;2,0;0,0;column;1,0;True;False;False;2,79600000381;False;1,23599982262
TMM90W;game;2017-01-20-12-12-55;8,0;35,0;1000;2,0;3,0;0,0;1,0;column;1,0;False;True;False;1,6970000267;True;1,02899980545
TMM90W;game;2017-01-20-12-12-55;8,0;36,0;1000;1,0;3,0;2,0;0,0;row;0,0;False;False;False;1,93300008774;True;0,765000104904
TMM90W;game;2017-01-20-12-12-55;8,0;37,0;1000;1,0;3,0;2,0;0,0;row;1,0;True;True;True;1,53299999237;True;1,16100001335
TMM90W;game;2017-01-20-12-12-55;8,0;38,0;1000;2,0;0,0;3,0;1,0;column;0,0;True;False;True;1,00099992752;True;0,697000026703
TMM90W;game;2017-01-20-12-12-55;8,0;39,0;1000;2,0;0,0;1,0;3,0;row;1,0;True;False;False;1,53099989891;False;1,33400011063
TMM90W;game;2017-01-20-12-12-55;8,0;40,0;1000;3,0;0,0;2,0;1,0;row;1,0;True;False;False;2,43400001526;False;1,16899991035
TMM90W;game;2017-01-20-12-12-55;8,0;41,0;1000;0,0;3,0;1,0;2,0;row;0,0;True;True;False;1,93299984932;False;0,600000143051
TMM90W;game;2017-01-20-12-12-55;8,0;42,0;1000;3,0;0,0;1,0;2,0;row;0,0;False;False;False;1,53299999237;True;1,00099992752
TMM90W;game;2017-01-20-12-12-55;8,0;43,0;1000;1,0;0,0;2,0;3,0;row;0,0;True;True;False;1,23300004005;False;0,863000154495
TMM90W;game;2017-01-20-12-12-55;8,0;44,0;1000;1,0;2,0;3,0;0,0;column;0,0;False;False;False;1,5;True;0,571000099182
TMM90W;game;2017-01-20-12-12-55;8,0;45,0;1000;0,0;2,0;3,0;1,0;row;0,0;False;False;False;1,2650001049;True;1,16099977493
TMM90W;game;2017-01-20-12-12-55;8,0;46,0;1000;1,0;2,0;3,0;0,0;row;1,0;True;False;True;0,932999849319;True;1,46199989319
TMM90W;game;2017-01-20-12-12-55;8,0;47,0;1000;0,0;1,0;2,0;3,0;column;1,0;True;True;True;1,46600008011;True;1,09399986267
TMM90W;game;2017-01-20-12-12-55;8,0;48,0;1000;0,0;3,0;1,0;2,0;row;1,0;False;True;False;1,46700000763;True;1,02099990845
TMM90W;game;2017-01-20-12-12-55;9,0;1,0;100;2,0;3,0;1,0;0,0;row;1,0;False;True;False;2,83200001717;True;1,45399999619
TMM90W;game;2017-01-20-12-12-55;9,0;2,0;100;2,0;3,0;0,0;1,0;row;0,0;False;True;False;1,99900007248;True;1,03299999237
TMM90W;game;2017-01-20-12-12-55;9,0;3,0;100;0,0;1,0;2,0;3,0;row;0,0;True;False;False;2,56700015068;False;0,554000139236
TMM90W;game;2017-01-20-12-12-55;9,0;4,0;100;1,0;0,0;2,0;3,0;column;0,0;False;False;False;1,53399991989;True;0,668999910355
TMM90W;game;2017-01-20-12-12-55;9,0;5,0;100;3,0;0,0;1,0;2,0;column;0,0;True;False;False;2,76699995995;False;1,46399998665
TMM90W;game;2017-01-20-12-12-55;9,0;6,0;100;3,0;1,0;0,0;2,0;row;0,0;True;True;True;1,76800012589;True;0,722999811172
TMM90W;game;2017-01-20-12-12-55;9,0;7,0;100;0,0;2,0;1,0;3,0;column;1,0;True;False;False;1,23300004005;False;1,4319999218
TMM90W;game;2017-01-20-12-12-55;9,0;8,0;100;2,0;1,0;3,0;0,0;row;0,0;True;True;True;1,53400015831;True;1,33599996567
TMM90W;game;2017-01-20-12-12-55;9,0;9,0;100;3,0;1,0;2,0;0,0;row;1,0;True;True;True;2,33299994469;True;1,46700000763
TMM90W;game;2017-01-20-12-12-55;9,0;10,0;100;2,0;3,0;1,0;0,0;row;0,0;False;False;False;2,26699995995;True;1,4960000515
TMM90W;game;2017-01-20-12-12-55;9,0;11,0;100;0,0;1,0;2,0;3,0;column;1,0;True;True;True;1,73300004005;True;0,966000080109
TMM90W;game;2017-01-20-12-12-55;9,0;12,0;100;1,0;2,0;0,0;3,0;column;0,0;True;True;True;1,83300018311;True;0,569999933243
TMM90W;game;2017-01-20-12-12-55;9,0;13,0;100;3,0;2,0;1,0;0,0;column;1,0;True;True;True;1,70000004768;True;1,27300000191
TMM90W;game;2017-01-20-12-12-55;9,0;14,0;100;3,0;2,0;1,0;0,0;column;1,0;False;False;False;1,20000004768;True;0,56299996376
TMM90W;game;2017-01-20-12-12-55;9,0;15,0;100;2,0;1,0;3,0;0,0;column;1,0;False;True;False;2,23399996758;True;0,53200006485
TMM90W;game;2017-01-20-12-12-55;9,0;16,0;100;1,0;3,0;0,0;2,0;row;0,0;True;False;True;1,66600012779;True;1,12399983406
TMM90W;game;2017-01-20-12-12-55;9,0;17,0;100;2,0;1,0;0,0;3,0;row;0,0;True;False;False;1,5;False;1,40499997139
TMM90W;game;2017-01-20-12-12-55;9,0;18,0;100;0,0;1,0;2,0;3,0;row;1,0;False;True;False;1,4319999218;True;0,836999893188
TMM90W;game;2017-01-20-12-12-55;9,0;19,0;100;2,0;3,0;1,0;0,0;column;0,0;True;False;False;2,23300004005;False;0,56500005722
TMM90W;game;2017-01-20-12-12-55;9,0;20,0;100;3,0;0,0;2,0;1,0;column;1,0;False;False;False;1,26699995995;True;0,766999959946
TMM90W;game;2017-01-20-12-12-55;9,0;21,0;100;1,0;0,0;3,0;2,0;row;0,0;True;True;False;1,46700000763;False;1,4960000515
TMM90W;game;2017-01-20-12-12-55;9,0;22,0;100;0,0;2,0;1,0;3,0;row;1,0;True;True;False;1,26600003242;False;1,09900021553
TMM90W;game;2017-01-20-12-12-55;9,0;23,0;100;1,0;3,0;2,0;0,0;row;1,0;False;True;False;1,5;True;0,598999977112
TMM90W;game;2017-01-20-12-12-55;9,0;24,0;100;0,0;2,0;1,0;3,0;row;0,0;True;False;True;1,33299994469;True;0,62299990654
TMM90W;game;2017-01-20-12-12-55;9,0;25,0;100;0,0;3,0;2,0;1,0;column;1,0;True;True;True;1,10000014305;True;1,06200003624
TMM90W;game;2017-01-20-12-12-55;9,0;26,0;100;0,0;1,0;2,0;3,0;column;0,0;False;True;False;1,13300013542;True;1,32999992371
TMM90W;game;2017-01-20-12-12-55;9,0;27,0;100;1,0;3,0;2,0;0,0;column;0,0;True;True;True;1,89899992943;True;0,768999814987
TMM90W;game;2017-01-20-12-12-55;9,0;28,0;100;1,0;2,0;0,0;3,0;row;0,0;False;True;True;2,23300004005;False;1,00300002098
TMM90W;game;2017-01-20-12-12-55;9,0;29,0;100;0,0;1,0;2,0;3,0;row;1,0;True;True;True;1,59999990463;True;0,835000038147
TMM90W;game;2017-01-20-12-12-55;9,0;30,0;100;2,0;0,0;3,0;1,0;column;0,0;False;False;False;0,900000095367;True;1,10199999809
TMM90W;game;2017-01-20-12-12-55;9,0;31,0;100;2,0;3,0;0,0;1,0;column;1,0;False;False;False;1,46700000763;True;0,870000123978
TMM90W;game;2017-01-20-12-12-55;9,0;32,0;100;2,0;0,0;1,0;3,0;column;1,0;False;True;False;1,46399998665;True;1,46300005913
TMM90W;game;2017-01-20-12-12-55;9,0;33,0;100;3,0;0,0;2,0;1,0;column;0,0;False;True;False;1,0680000782;True;0,801000118256
TMM90W;game;2017-01-20-12-12-55;9,0;34,0;100;0,0;3,0;2,0;1,0;row;0,0;True;True;False;3,132999897;False;1,26900005341
TMM90W;game;2017-01-20-12-12-55;9,0;35,0;100;1,0;0,0;2,0;3,0;column;0,0;True;True;True;0,867000102997;True;0,895999908447
TMM90W;game;2017-01-20-12-12-55;9,0;36,0;100;2,0;1,0;3,0;0,0;row;0,0;False;False;True;2,70000004768;False;1,40000009537
TMM90W;game;2017-01-20-12-12-55;9,0;37,0;100;2,0;0,0;1,0;3,0;column;0,0;False;True;False;0,667000055313;True;0,933000087738
TMM90W;game;2017-01-20-12-12-55;9,0;38,0;100;2,0;1,0;0,0;3,0;row;1,0;True;False;False;1,26699995995;False;1,33100008965
TMM90W;game;2017-01-20-12-12-55;9,0;39,0;100;3,0;0,0;1,0;2,0;column;1,0;True;False;True;1,29999995232;True;0,65700006485
TMM90W;game;2017-01-20-12-12-55;9,0;40,0;100;3,0;1,0;2,0;0,0;row;0,0;False;True;False;2,03399991989;True;0,923000097275
TMM90W;game;2017-01-20-12-12-55;9,0;41,0;100;0,0;3,0;1,0;2,0;column;0,0;True;False;True;1,73300004005;True;1,15599989891
TMM90W;game;2017-01-20-12-12-55;9,0;42,0;100;3,0;1,0;0,0;2,0;column;1,0;True;False;True;1,5;True;0,799000024796
TMM90W;game;2017-01-20-12-12-55;9,0;43,0;100;2,0;1,0;3,0;0,0;column;1,0;True;True;True;1,43399977684;True;0,868000030518
TMM90W;game;2017-01-20-12-12-55;9,0;44,0;100;3,0;0,0;2,0;1,0;row;1,0;True;True;False;1,867000103;False;1,19400000572
TMM90W;game;2017-01-20-12-12-55;9,0;45,0;100;0,0;3,0;2,0;1,0;row;0,0;False;False;False;2,33299994469;True;0,93700003624
TMM90W;game;2017-01-20-12-12-55;9,0;46,0;100;2,0;0,0;3,0;1,0;column;1,0;False;True;False;1,66700005531;True;1,16999983788
TMM90W;game;2017-01-20-12-12-55;9,0;47,0;100;2,0;3,0;0,0;1,0;column;0,0;True;True;True;1,63400006294;True;1,22900009155
TMM90W;game;2017-01-20-12-12-55;9,0;48,0;100;3,0;2,0;0,0;1,0;column;0,0;True;True;True;0,733999967575;True;1,06500005722
TMM90W;game;2017-01-20-12-12-55;10,0;1,0;-100;0,0;1,0;3,0;2,0;row;1,0;True;True;True;2,18400001526;True;1,10199999809
TMM90W;game;2017-01-20-12-12-55;10,0;2,0;-100;3,0;2,0;1,0;0,0;column;1,0;True;False;True;1,08400011063;True;1,46900010109
TMM90W;game;2017-01-20-12-12-55;10,0;3,0;-100;1,0;2,0;0,0;3,0;column;0,0;True;True;True;1,04999995232;True;1,29299998283
TMM90W;game;2017-01-20-12-12-55;10,0;4,0;-100;2,0;3,0;0,0;1,0;column;1,0;False;False;False;1,6819999218;True;1,15699982643
TMM90W;game;2017-01-20-12-12-55;10,0;5,0;-100;2,0;3,0;1,0;0,0;row;0,0;True;True;True;1,617000103;True;1,26699995995
TMM90W;game;2017-01-20-12-12-55;10,0;6,0;-100;2,0;3,0;1,0;0,0;column;0,0;True;False;False;2,34700012207;False;0,764999866486
TMM90W;game;2017-01-20-12-12-55;10,0;7,0;-100;2,0;0,0;1,0;3,0;column;0,0;True;True;True;0,884000062943;True;0,601999998093
TMM90W;game;2017-01-20-12-12-55;10,0;8,0;-100;1,0;0,0;3,0;2,0;row;1,0;True;True;False;2,24699997902;False;0,897000074387
TMM90W;game;2017-01-20-12-12-55;10,0;9,0;-100;2,0;1,0;3,0;0,0;column;0,0;True;True;True;0,78200006485;True;0,726999998093
TMM90W;game;2017-01-20-12-12-55;10,0;10,0;-100;3,0;1,0;2,0;0,0;column;1,0;False;False;False;1,31500005722;True;0,867000102997
TMM90W;game;2017-01-20-12-12-55;10,0;11,0;-100;3,0;1,0;0,0;2,0;column;1,0;True;False;True;1,31699991226;True;0,898000001907
TMM90W;game;2017-01-20-12-12-55;10,0;12,0;-100;3,0;0,0;2,0;1,0;column;0,0;False;False;False;1,44900012016;True;0,53200006485
TMM90W;game;2017-01-20-12-12-55;10,0;13,0;-100;1,0;2,0;3,0;0,0;row;0,0;False;True;False;0,982000112534;True;1,13199996948
TMM90W;game;2017-01-20-12-12-55;10,0;14,0;-100;1,0;0,0;2,0;3,0;column;1,0;True;True;True;1,68400001526;True;0,998000144958
TMM90W;game;2017-01-20-12-12-55;10,0;15,0;-100;1,0;3,0;2,0;0,0;row;0,0;True;False;True;1,28400015831;True;0,90399980545
TMM90W;game;2017-01-20-12-12-55;10,0;16,0;-100;1,0;2,0;0,0;3,0;column;1,0;True;True;True;1,78200006485;True;0,764999866486
TMM90W;game;2017-01-20-12-12-55;10,0;17,0;-100;0,0;2,0;3,0;1,0;column;0,0;False;True;False;1,05100011826;True;1,30099987984
TMM90W;game;2017-01-20-12-12-55;10,0;18,0;-100;1,0;2,0;0,0;3,0;row;0,0;False;True;False;1,95000004768;True;1,39499998093
TMM90W;game;2017-01-20-12-12-55;10,0;19,0;-100;0,0;3,0;1,0;2,0;row;0,0;True;False;True;1,68099999428;True;0,768000125885
TMM90W;game;2017-01-20-12-12-55;10,0;20,0;-100;3,0;2,0;0,0;1,0;column;1,0;True;True;True;1,68400001526;True;1,46599984169
TMM90W;game;2017-01-20-12-12-55;10,0;21,0;-100;0,0;2,0;3,0;1,0;row;0,0;True;True;True;1,31699991226;True;1,49899983406
TMM90W;game;2017-01-20-12-12-55;10,0;22,0;-100;1,0;3,0;0,0;2,0;column;1,0;False;True;True;1,28200006485;False;1,43099999428
TMM90W;game;2017-01-20-12-12-55;10,0;23,0;-100;1,0;0,0;3,0;2,0;row;0,0;True;True;True;1,38199996948;True;0,537000179291
TMM90W;game;2017-01-20-12-12-55;10,0;24,0;-100;0,0;2,0;3,0;1,0;row;1,0;False;False;False;1,28299999237;True;0,625
TMM90W;game;2017-01-20-12-12-55;10,0;25,0;-100;0,0;3,0;1,0;2,0;row;1,0;False;True;True;1,55100011826;False;1,4319999218
TMM90W;game;2017-01-20-12-12-55;10,0;26,0;-100;3,0;1,0;2,0;0,0;column;0,0;False;True;False;0,882999897003;True;1,13899993896
TMM90W;game;2017-01-20-12-12-55;10,0;27,0;-100;0,0;1,0;2,0;3,0;row;1,0;False;False;False;1,617000103;True;0,670999765396
TMM90W;game;2017-01-20-12-12-55;10,0;28,0;-100;0,0;3,0;1,0;2,0;row;0,0;False;True;False;1,382999897;True;1,30399990082
TMM90W;game;2017-01-20-12-12-55;10,0;29,0;-100;3,0;2,0;1,0;0,0;row;0,0;False;True;False;1,4509999752;True;0,893000125885
TMM90W;game;2017-01-20-12-12-55;10,0;30,0;-100;0,0;3,0;2,0;1,0;column;0,0;False;True;False;1,21700000763;True;0,831000089645
TMM90W;game;2017-01-20-12-12-55;10,0;31,0;-100;0,0;2,0;1,0;3,0;row;0,0;False;False;False;1,61599993706;True;0,700999975204
TMM90W;game;2017-01-20-12-12-55;10,0;32,0;-100;3,0;1,0;2,0;0,0;row;1,0;True;True;True;1,48399996758;True;1,39499998093
TMM90W;game;2017-01-20-12-12-55;10,0;33,0;-100;0,0;2,0;3,0;1,0;column;1,0;True;True;True;1,45000004768;True;0,858000040054
TMM90W;game;2017-01-20-12-12-55;10,0;34,0;-100;0,0;2,0;3,0;1,0;row;0,0;False;False;False;1,41499996185;True;0,538000106812
TMM90W;game;2017-01-20-12-12-55;10,0;35,0;-100;3,0;1,0;0,0;2,0;column;1,0;False;False;True;1,25;False;1,0
TMM90W;game;2017-01-20-12-12-55;10,0;36,0;-100;0,0;2,0;1,0;3,0;column;0,0;False;False;False;0,949000120163;True;0,838000059128
TMM90W;game;2017-01-20-12-12-55;10,0;37,0;-100;1,0;2,0;3,0;0,0;row;0,0;True;False;False;1,41400003433;False;1,39499998093
TMM90W;game;2017-01-20-12-12-55;10,0;38,0;-100;1,0;0,0;3,0;2,0;row;1,0;False;False;False;1,51700019836;True;1,0569999218
TMM90W;game;2017-01-20-12-12-55;10,0;39,0;-100;2,0;0,0;3,0;1,0;column;1,0;True;False;True;1,28199982643;True;0,536999940872
TMM90W;game;2017-01-20-12-12-55;10,0;40,0;-100;2,0;1,0;3,0;0,0;row;1,0;True;True;True;1,51699995995;True;1,49499988556
TMM90W;game;2017-01-20-12-12-55;10,0;41,0;-100;1,0;3,0;0,0;2,0;row;1,0;False;True;False;1,08300018311;True;1,46799993515
TMM90W;game;2017-01-20-12-12-55;10,0;42,0;-100;3,0;2,0;0,0;1,0;column;0,0;True;False;True;1,01399993896;True;0,669000148773
TMM90W;game;2017-01-20-12-12-55;10,0;43,0;-100;1,0;2,0;3,0;0,0;column;1,0;False;False;False;1,55000019073;True;1,37199997902
TMM90W;game;2017-01-20-12-12-55;10,0;44,0;-100;0,0;2,0;1,0;3,0;row;1,0;True;True;True;1,71300005913;True;1,40299987793
TMM90W;game;2017-01-20-12-12-55;10,0;45,0;-100;2,0;1,0;3,0;0,0;column;1,0;True;True;True;1,71499991417;True;1,38899993896
TMM90W;game;2017-01-20-12-12-55;10,0;46,0;-100;0,0;1,0;2,0;3,0;row;0,0;False;False;False;1,35100007057;True;1,10100007057
TMM90W;game;2017-01-20-12-12-55;10,0;47,0;-100;0,0;3,0;2,0;1,0;row;1,0;True;True;True;1,71700000763;True;0,532999992371
TMM90W;game;2017-01-20-12-12-55;10,0;48,0;-100;0,0;2,0;1,0;3,0;column;1,0;True;True;False;1,48300004005;False;0,671999931335
TMM90W;game;2017-01-20-12-12-55;11,0;1,0;100;0,0;3,0;1,0;2,0;row;0,0;True;False;True;1,43299984932;True;0,848000049591
TMM90W;game;2017-01-20-12-12-55;11,0;2,0;100;2,0;3,0;1,0;0,0;row;1,0;True;True;True;1,46700000763;True;0,861000061035
TMM90W;game;2017-01-20-12-12-55;11,0;3,0;100;3,0;0,0;1,0;2,0;column;0,0;False;True;False;1,66700005531;True;1,15499997139
TMM90W;game;2017-01-20-12-12-55;11,0;4,0;100;2,0;0,0;3,0;1,0;column;0,0;True;True;True;1,5;True;1,39900016785
TMM90W;game;2017-01-20-12-12-55;11,0;5,0;100;2,0;0,0;1,0;3,0;row;0,0;True;True;True;1,30099987984;True;1,09599995613
TMM90W;game;2017-01-20-12-12-55;11,0;6,0;100;2,0;0,0;3,0;1,0;column;1,0;True;True;True;1,73200011253;True;1,38999986649
TMM90W;game;2017-01-20-12-12-55;11,0;7,0;100;0,0;2,0;1,0;3,0;row;1,0;False;False;False;1,43300008774;True;1,10199999809
TMM90W;game;2017-01-20-12-12-55;11,0;8,0;100;0,0;3,0;2,0;1,0;column;0,0;True;False;False;1,13400006294;False;1,45999979973
TMM90W;game;2017-01-20-12-12-55;11,0;9,0;100;3,0;0,0;1,0;2,0;row;0,0;False;True;False;2,23399996758;True;0,536000013351
TMM90W;game;2017-01-20-12-12-55;11,0;10,0;100;1,0;2,0;3,0;0,0;row;0,0;False;False;False;1,36699986458;True;0,804000139236
TMM90W;game;2017-01-20-12-12-55;11,0;11,0;100;1,0;2,0;3,0;0,0;row;1,0;False;False;True;2,03299999237;False;1,06500005722
TMM90W;game;2017-01-20-12-12-55;11,0;12,0;100;3,0;1,0;0,0;2,0;column;1,0;False;False;False;1,96600008011;True;1,13499999046
TMM90W;game;2017-01-20-12-12-55;11,0;13,0;100;3,0;0,0;2,0;1,0;row;0,0;True;True;False;1,20000004768;False;1,03099989891
TMM90W;game;2017-01-20-12-12-55;11,0;14,0;100;1,0;2,0;0,0;3,0;row;0,0;True;False;True;1,53400015831;True;0,99599981308
TMM90W;game;2017-01-20-12-12-55;11,0;15,0;100;1,0;2,0;0,0;3,0;column;1,0;True;False;True;1,86500000954;True;0,631000041962
TMM90W;game;2017-01-20-12-12-55;11,0;16,0;100;2,0;3,0;0,0;1,0;row;0,0;True;True;False;1,26699995995;False;1,46300005913
TMM90W;game;2017-01-20-12-12-55;11,0;17,0;100;1,0;2,0;3,0;0,0;row;1,0;True;False;True;2,43299984932;True;1,50099992752
TMM90W;game;2017-01-20-12-12-55;11,0;18,0;100;2,0;1,0;3,0;0,0;column;0,0;False;False;False;0,867999792099;True;0,532999992371
TMM90W;game;2017-01-20-12-12-55;11,0;19,0;100;2,0;0,0;1,0;3,0;row;1,0;True;True;True;1,53299999237;True;1,02600002289
TMM90W;game;2017-01-20-12-12-55;11,0;20,0;100;3,0;2,0;0,0;1,0;row;1,0;True;True;True;1,23000001907;True;0,836999893188
TMM90W;game;2017-01-20-12-12-55;11,0;21,0;100;2,0;3,0;0,0;1,0;column;0,0;False;True;True;1,40000009537;False;0,835000038147
TMM90W;game;2017-01-20-12-12-55;11,0;22,0;100;2,0;1,0;0,0;3,0;column;1,0;False;True;True;1,26599979401;False;1,06299996376
TMM90W;game;2017-01-20-12-12-55;11,0;23,0;100;1,0;0,0;3,0;2,0;column;1,0;True;True;True;0,967000007629;True;0,726000070572
TMM90W;game;2017-01-20-12-12-55;11,0;24,0;100;1,0;2,0;3,0;0,0;column;1,0;True;False;True;1,132999897;True;0,726999998093
TMM90W;game;2017-01-20-12-12-55;11,0;25,0;100;0,0;3,0;1,0;2,0;column;0,0;False;True;False;1,09999990463;True;0,963999986649
TMM90W;game;2017-01-20-12-12-55;11,0;26,0;100;3,0;2,0;0,0;1,0;column;1,0;True;True;True;1,132999897;True;0,835999965668
TMM90W;game;2017-01-20-12-12-55;11,0;27,0;100;1,0;0,0;3,0;2,0;row;1,0;False;True;True;1,76700019836;False;0,730000019073
TMM90W;game;2017-01-20-12-12-55;11,0;28,0;100;3,0;2,0;1,0;0,0;row;0,0;True;False;True;1,26600003242;True;1,20200014114
TMM90W;game;2017-01-20-12-12-55;11,0;29,0;100;3,0;2,0;0,0;1,0;column;0,0;False;True;False;1,09800004959;True;1,36899995804
TMM90W;game;2017-01-20-12-12-55;11,0;30,0;100;3,0;2,0;0,0;1,0;row;0,0;False;False;True;1,93099999428;False;1,06599998474
TMM90W;game;2017-01-20-12-12-55;11,0;31,0;100;1,0;3,0;0,0;2,0;row;1,0;False;False;False;1,09999990463;True;1,02499985695
TMM90W;game;2017-01-20-12-12-55;11,0;32,0;100;0,0;1,0;2,0;3,0;row;0,0;False;False;True;1,83400011063;False;0,936999797821
TMM90W;game;2017-01-20-12-12-55;11,0;33,0;100;3,0;0,0;1,0;2,0;row;1,0;False;True;False;0,797999858856;True;1,03600001335
TMM90W;game;2017-01-20-12-12-55;11,0;34,0;100;1,0;0,0;2,0;3,0;row;0,0;True;False;False;1,66700005531;False;0,655999898911
TMM90W;game;2017-01-20-12-12-55;11,0;35,0;100;2,0;0,0;3,0;1,0;row;1,0;True;False;True;1,20000004768;True;1,367000103
TMM90W;game;2017-01-20-12-12-55;11,0;36,0;100;0,0;2,0;1,0;3,0;row;0,0;False;True;False;1,56700015068;True;0,52999997139
TMM90W;game;2017-01-20-12-12-55;11,0;37,0;100;3,0;2,0;0,0;1,0;row;1,0;False;False;True;1,13199996948;False;0,930999994278
TMM90W;game;2017-01-20-12-12-55;11,0;38,0;100;1,0;3,0;2,0;0,0;row;1,0;True;False;False;0,666000127792;False;1,32999992371
TMM90W;game;2017-01-20-12-12-55;11,0;39,0;100;1,0;3,0;2,0;0,0;column;1,0;True;True;False;1,39999985695;False;1,26499986649
TMM90W;game;2017-01-20-12-12-55;11,0;40,0;100;2,0;3,0;0,0;1,0;row;1,0;True;False;False;1,16700005531;False;0,668999910355
TMM90W;game;2017-01-20-12-12-55;11,0;41,0;100;2,0;3,0;1,0;0,0;column;1,0;True;True;False;1,13300013542;False;0,529000043869
TMM90W;game;2017-01-20-12-12-55;11,0;42,0;100;3,0;0,0;2,0;1,0;column;1,0;True;False;True;1,33299994469;True;1,09500002861
TMM90W;game;2017-01-20-12-12-55;11,0;43,0;100;0,0;3,0;2,0;1,0;column;1,0;False;True;True;1,4319999218;False;1,20399999619
TMM90W;game;2017-01-20-12-12-55;11,0;44,0;100;2,0;1,0;0,0;3,0;row;1,0;False;False;False;2,09999990463;True;1,50300002098
TMM90W;game;2017-01-20-12-12-55;11,0;45,0;100;2,0;1,0;0,0;3,0;row;0,0;False;True;False;2,03299999237;True;1,43000006676
TMM90W;game;2017-01-20-12-12-55;11,0;46,0;100;0,0;3,0;1,0;2,0;row;1,0;True;True;False;2,79999995232;False;1,4279999733
TMM90W;game;2017-01-20-12-12-55;11,0;47,0;100;3,0;0,0;1,0;2,0;column;1,0;False;True;False;1,59899997711;True;1,2349998951
TMM90W;game;2017-01-20-12-12-55;11,0;48,0;100;3,0;0,0;1,0;2,0;row;0,0;True;False;False;1,46500015259;False;1,00099992752
TMM90W;game;2017-01-20-12-12-55;12,0;1,0;1000;1,0;0,0;3,0;2,0;column;0,0;False;False;False;1,73199987411;True;1,29999995232
TMM90W;game;2017-01-20-12-12-55;12,0;2,0;1000;2,0;3,0;0,0;1,0;row;0,0;True;True;True;1,99699997902;True;0,929000139236
TMM90W;game;2017-01-20-12-12-55;12,0;3,0;1000;0,0;3,0;1,0;2,0;row;1,0;True;False;True;1,66700005531;True;0,765999794006
TMM90W;game;2017-01-20-12-12-55;12,0;4,0;1000;3,0;1,0;2,0;0,0;row;1,0;True;True;False;3,03399991989;False;1,19900012016
TMM90W;game;2017-01-20-12-12-55;12,0;5,0;1000;1,0;3,0;0,0;2,0;column;1,0;True;True;True;1,29999995232;True;0,894000053406
TMM90W;game;2017-01-20-12-12-55;12,0;6,0;1000;1,0;0,0;2,0;3,0;column;1,0;True;True;True;1,23299980164;True;1,3710000515
TMM90W;game;2017-01-20-12-12-55;12,0;7,0;1000;1,0;2,0;0,0;3,0;row;0,0;False;False;True;2,7990000248;False;0,955999851227
TMM90W;game;2017-01-20-12-12-55;12,0;8,0;1000;2,0;3,0;0,0;1,0;column;0,0;False;True;False;1,73200011253;True;0,871000051498
TMM90W;game;2017-01-20-12-12-55;12,0;9,0;1000;0,0;2,0;3,0;1,0;column;0,0;False;False;True;1,46600008011;False;0,526999950409
TMM90W;game;2017-01-20-12-12-55;12,0;10,0;1000;3,0;2,0;1,0;0,0;row;1,0;False;True;False;1,26900005341;True;1,10399985313
TMM90W;game;2017-01-20-12-12-55;12,0;11,0;1000;2,0;3,0;1,0;0,0;row;1,0;True;False;False;0,932999849319;False;0,698000192642
TMM90W;game;2017-01-20-12-12-55;12,0;12,0;1000;3,0;2,0;0,0;1,0;row;1,0;True;True;False;1,20000004768;False;1,3259999752
