Observer;Condition;SessionID;Block;Trial;COA;Color0;Color1;Color2;Color3;Target;Which;Match;FlipComplimentary;Response;RT;Correct;OnsetDelay
UGB1995w;experiment;2017-04-28-10-15-30;1,0;1,0;-100;1,0;2,0;0,0;3,0;row;1,0;True;False;True;1,18299984932;True;1,33500003815
UGB1995w;experiment;2017-04-28-10-15-30;1,0;2,0;-100;3,0;2,0;1,0;0,0;column;0,0;False;True;False;1,21700000763;True;0,789999961853
UGB1995w;experiment;2017-04-28-10-15-30;1,0;3,0;-100;3,0;1,0;2,0;0,0;column;1,0;True;True;True;2,31599998474;True;1,12599992752
UGB1995w;experiment;2017-04-28-10-15-30;1,0;4,0;-100;2,0;1,0;0,0;3,0;column;1,0;True;False;False;1,98299980164;False;1,27200007439
UGB1995w;experiment;2017-04-28-10-15-30;1,0;5,0;-100;3,0;0,0;2,0;1,0;row;1,0;False;True;False;1,81599998474;True;0,865999937057
UGB1995w;experiment;2017-04-28-10-15-30;1,0;6,0;-100;0,0;3,0;2,0;1,0;column;1,0;False;False;False;1,81599998474;True;0,539000034332
UGB1995w;experiment;2017-04-28-10-15-30;1,0;7,0;-100;3,0;2,0;0,0;1,0;row;1,0;False;False;False;1,75;True;0,823999881744
UGB1995w;experiment;2017-04-28-10-15-30;1,0;8,0;-100;2,0;3,0;1,0;0,0;column;0,0;False;False;False;2,71600008011;True;1,49399995804
UGB1995w;experiment;2017-04-28-10-15-30;1,0;9,0;-100;3,0;2,0;1,0;0,0;row;0,0;False;False;False;1,41599988937;True;0,99799990654
UGB1995w;experiment;2017-04-28-10-15-30;1,0;10,0;-100;0,0;3,0;2,0;1,0;column;1,0;True;False;True;2,05000019073;True;1,1930000782
UGB1995w;experiment;2017-04-28-10-15-30;1,0;11,0;-100;3,0;0,0;1,0;2,0;column;0,0;True;True;False;1,34999990463;False;0,868000030518
UGB1995w;experiment;2017-04-28-10-15-30;1,0;12,0;-100;1,0;2,0;3,0;0,0;row;1,0;False;True;False;2,55000019073;True;0,867999792099
UGB1995w;experiment;2017-04-28-10-15-30;1,0;13,0;-100;3,0;0,0;2,0;1,0;column;1,0;False;True;False;1,21600008011;True;0,608999967575
UGB1995w;experiment;2017-04-28-10-15-30;1,0;14,0;-100;1,0;0,0;2,0;3,0;row;0,0;False;True;False;1,94899988174;True;1,00099992752
UGB1995w;experiment;2017-04-28-10-15-30;1,0;15,0;-100;3,0;2,0;0,0;1,0;row;0,0;True;True;False;1,35199999809;False;0,598000049591
UGB1995w;experiment;2017-04-28-10-15-30;1,0;16,0;-100;3,0;0,0;1,0;2,0;row;0,0;False;True;False;1,81799983978;True;0,601000070572
UGB1995w;experiment;2017-04-28-10-15-30;1,0;17,0;-100;1,0;2,0;3,0;0,0;row;0,0;False;False;False;1,55000019073;True;1,06599998474
UGB1995w;experiment;2017-04-28-10-15-30;1,0;18,0;-100;2,0;0,0;1,0;3,0;column;1,0;True;True;True;0,917000055313;True;0,758000135422
UGB1995w;experiment;2017-04-28-10-15-30;1,0;19,0;-100;0,0;1,0;3,0;2,0;column;1,0;True;True;True;1,15100002289;True;1,43299984932
UGB1995w;experiment;2017-04-28-10-15-30;1,0;20,0;-100;1,0;3,0;0,0;2,0;column;1,0;True;False;False;1,41700005531;False;1,4240000248
UGB1995w;experiment;2017-04-28-10-15-30;1,0;21,0;-100;0,0;3,0;2,0;1,0;row;1,0;True;False;False;1,18300008774;False;1,19000005722
UGB1995w;experiment;2017-04-28-10-15-30;1,0;22,0;-100;2,0;1,0;0,0;3,0;column;0,0;False;False;False;1,58299994469;True;1,23300004005
UGB1995w;experiment;2017-04-28-10-15-30;1,0;23,0;-100;1,0;2,0;3,0;0,0;column;1,0;True;False;True;0,915999889374;True;1,2650001049
UGB1995w;experiment;2017-04-28-10-15-30;1,0;24,0;-100;2,0;1,0;0,0;3,0;row;1,0;True;False;True;2,34599995613;True;0,699000120163
UGB1995w;experiment;2017-04-28-10-15-30;1,0;25,0;-100;2,0;3,0;0,0;1,0;row;1,0;False;True;False;1,65000009537;True;0,690999984741
UGB1995w;experiment;2017-04-28-10-15-30;1,0;26,0;-100;0,0;2,0;3,0;1,0;column;0,0;False;False;False;1,01699995995;True;0,600000143051
UGB1995w;experiment;2017-04-28-10-15-30;1,0;27,0;-100;0,0;2,0;3,0;1,0;row;0,0;False;True;False;1,35000014305;True;0,901000022888
UGB1995w;experiment;2017-04-28-10-15-30;1,0;28,0;-100;0,0;2,0;3,0;1,0;column;0,0;True;True;True;1,18400001526;True;0,896999835968
UGB1995w;experiment;2017-04-28-10-15-30;1,0;29,0;-100;3,0;2,0;1,0;0,0;row;1,0;True;True;True;1,32500004768;True;0,667000055313
UGB1995w;experiment;2017-04-28-10-15-30;1,0;30,0;-100;2,0;3,0;1,0;0,0;column;1,0;True;False;True;1,34700012207;True;1,13300013542
UGB1995w;experiment;2017-04-28-10-15-30;1,0;31,0;-100;2,0;0,0;3,0;1,0;column;0,0;False;True;False;1,15200018883;True;1,16499996185
UGB1995w;experiment;2017-04-28-10-15-30;1,0;32,0;-100;3,0;2,0;1,0;0,0;column;0,0;True;False;True;1,86600017548;True;1,19899988174
UGB1995w;experiment;2017-04-28-10-15-30;1,0;33,0;-100;2,0;0,0;3,0;1,0;row;1,0;False;False;False;1,82299995422;True;1,12600016594
UGB1995w;experiment;2017-04-28-10-15-30;1,0;34,0;-100;3,0;1,0;2,0;0,0;column;0,0;False;True;False;1,58299994469;True;1,02999997139
UGB1995w;experiment;2017-04-28-10-15-30;1,0;35,0;-100;2,0;3,0;0,0;1,0;row;0,0;True;False;True;2,16100001335;True;0,561000108719
UGB1995w;experiment;2017-04-28-10-15-30;1,0;36,0;-100;1,0;0,0;2,0;3,0;row;1,0;False;True;False;1,61600017548;True;1,19199991226
UGB1995w;experiment;2017-04-28-10-15-30;1,0;37,0;-100;2,0;1,0;0,0;3,0;row;0,0;True;True;False;1,44800019264;False;0,59299993515
UGB1995w;experiment;2017-04-28-10-15-30;1,0;38,0;-100;0,0;2,0;3,0;1,0;row;1,0;False;True;False;2,08299994469;True;1,43099999428
UGB1995w;experiment;2017-04-28-10-15-30;1,0;39,0;-100;0,0;2,0;1,0;3,0;column;1,0;True;True;True;1,68300008774;True;0,632999897003
UGB1995w;experiment;2017-04-28-10-15-30;1,0;40,0;-100;0,0;2,0;3,0;1,0;row;1,0;True;False;True;1,01700019836;True;1,39300012589
UGB1995w;experiment;2017-04-28-10-15-30;1,0;41,0;-100;0,0;3,0;1,0;2,0;row;1,0;True;False;True;2,02200007439;True;1,06299996376
UGB1995w;experiment;2017-04-28-10-15-30;1,0;42,0;-100;3,0;0,0;1,0;2,0;row;0,0;True;True;True;1,84799981117;True;1,4889998436
UGB1995w;experiment;2017-04-28-10-15-30;1,0;43,0;-100;1,0;0,0;3,0;2,0;row;0,0;False;True;False;1,64899992943;True;1,16799998283
UGB1995w;experiment;2017-04-28-10-15-30;1,0;44,0;-100;0,0;1,0;3,0;2,0;column;0,0;False;True;False;1,81599998474;True;1,23900008202
UGB1995w;experiment;2017-04-28-10-15-30;1,0;45,0;-100;1,0;3,0;2,0;0,0;row;0,0;False;False;False;1,4509999752;True;1,16299986839
UGB1995w;experiment;2017-04-28-10-15-30;1,0;46,0;-100;3,0;0,0;1,0;2,0;column;0,0;False;True;False;1,78200006485;True;0,731000185013
UGB1995w;experiment;2017-04-28-10-15-30;1,0;47,0;-100;0,0;1,0;3,0;2,0;row;1,0;False;True;False;1,65000009537;True;1,29899978638
UGB1995w;experiment;2017-04-28-10-15-30;1,0;48,0;-100;2,0;3,0;0,0;1,0;row;1,0;True;True;True;1,14900016785;True;0,829999923706
UGB1995w;experiment;2017-04-28-10-15-30;2,0;1,0;100;0,0;1,0;2,0;3,0;row;1,0;False;True;False;1,2990000248;True;1,26400017738
UGB1995w;experiment;2017-04-28-10-15-30;2,0;2,0;100;2,0;0,0;3,0;1,0;column;0,0;False;True;False;2,06599998474;True;1,09299993515
UGB1995w;experiment;2017-04-28-10-15-30;2,0;3,0;100;0,0;3,0;2,0;1,0;column;0,0;False;False;False;2,16600012779;True;0,633000135422
UGB1995w;experiment;2017-04-28-10-15-30;2,0;4,0;100;3,0;0,0;1,0;2,0;row;1,0;True;False;True;1,16799998283;True;0,708999872208
UGB1995w;experiment;2017-04-28-10-15-30;2,0;5,0;100;2,0;3,0;1,0;0,0;row;0,0;True;False;True;0,732999801636;True;0,925999879837
UGB1995w;experiment;2017-04-28-10-15-30;2,0;6,0;100;1,0;0,0;2,0;3,0;row;1,0;False;True;False;1,5;True;0,96599984169
UGB1995w;experiment;2017-04-28-10-15-30;2,0;7,0;100;2,0;0,0;1,0;3,0;row;1,0;False;False;False;1,59899997711;True;0,730000019073
UGB1995w;experiment;2017-04-28-10-15-30;2,0;8,0;100;0,0;1,0;2,0;3,0;row;0,0;False;False;False;1,06699991226;True;1,06200003624
UGB1995w;experiment;2017-04-28-10-15-30;2,0;9,0;100;1,0;2,0;0,0;3,0;column;1,0;True;False;True;0,798000097275;True;1,5
UGB1995w;experiment;2017-04-28-10-15-30;2,0;10,0;100;2,0;3,0;1,0;0,0;column;0,0;False;True;False;1,27099990845;True;0,705999851227
UGB1995w;experiment;2017-04-28-10-15-30;2,0;11,0;100;0,0;3,0;1,0;2,0;column;0,0;False;False;False;1,13400006294;True;1,43499994278
UGB1995w;experiment;2017-04-28-10-15-30;2,0;12,0;100;2,0;3,0;1,0;0,0;row;0,0;False;True;False;1,26600003242;True;0,765999794006
UGB1995w;experiment;2017-04-28-10-15-30;2,0;13,0;100;2,0;1,0;0,0;3,0;column;0,0;True;False;False;1,09799981117;False;1,38199996948
UGB1995w;experiment;2017-04-28-10-15-30;2,0;14,0;100;2,0;1,0;0,0;3,0;row;0,0;False;True;False;1,76699995995;True;0,59900021553
UGB1995w;experiment;2017-04-28-10-15-30;2,0;15,0;100;2,0;0,0;1,0;3,0;column;0,0;True;True;False;1,90000009537;False;1,27099990845
UGB1995w;experiment;2017-04-28-10-15-30;2,0;16,0;100;2,0;0,0;3,0;1,0;column;0,0;True;True;True;0,934000015259;True;0,966000080109
UGB1995w;experiment;2017-04-28-10-15-30;2,0;17,0;100;3,0;2,0;0,0;1,0;column;1,0;False;True;False;1,39899992943;True;0,898000001907
UGB1995w;experiment;2017-04-28-10-15-30;2,0;18,0;100;2,0;3,0;0,0;1,0;column;1,0;False;True;False;2,43200016022;True;1,13400006294
UGB1995w;experiment;2017-04-28-10-15-30;2,0;19,0;100;0,0;2,0;1,0;3,0;column;1,0;True;True;False;2,20000004768;False;1,46300005913
UGB1995w;experiment;2017-04-28-10-15-30;2,0;20,0;100;0,0;3,0;1,0;2,0;row;0,0;False;False;False;2,39999985695;True;0,694000005722
UGB1995w;experiment;2017-04-28-10-15-30;2,0;21,0;100;0,0;3,0;2,0;1,0;column;0,0;True;False;True;2,60399985313;True;0,863999843597
UGB1995w;experiment;2017-04-28-10-15-30;2,0;22,0;100;1,0;3,0;2,0;0,0;column;1,0;True;False;True;3,23600006104;True;1,12599992752
UGB1995w;experiment;2017-04-28-10-15-30;2,0;23,0;100;3,0;1,0;2,0;0,0;column;1,0;False;False;False;2,96700000763;True;0,898000001907
UGB1995w;experiment;2017-04-28-10-15-30;2,0;24,0;100;0,0;1,0;2,0;3,0;row;0,0;True;False;False;1,53399991989;False;1,13899993896
UGB1995w;experiment;2017-04-28-10-15-30;2,0;25,0;100;3,0;2,0;0,0;1,0;column;0,0;True;False;True;1,83400011063;True;0,960000038147
UGB1995w;experiment;2017-04-28-10-15-30;2,0;26,0;100;3,0;1,0;2,0;0,0;row;0,0;True;False;True;1,30000019073;True;1,46499991417
UGB1995w;experiment;2017-04-28-10-15-30;2,0;27,0;100;1,0;0,0;2,0;3,0;column;0,0;True;False;False;1,36599993706;False;0,999000072479
UGB1995w;experiment;2017-04-28-10-15-30;2,0;28,0;100;0,0;1,0;2,0;3,0;column;1,0;False;False;False;1,79999995232;True;0,866999864578
UGB1995w;experiment;2017-04-28-10-15-30;2,0;29,0;100;3,0;0,0;2,0;1,0;column;1,0;True;False;True;1,16600012779;True;1,07600021362
UGB1995w;experiment;2017-04-28-10-15-30;2,0;30,0;100;1,0;3,0;2,0;0,0;row;0,0;False;False;False;1,13100004196;True;1,0
UGB1995w;experiment;2017-04-28-10-15-30;2,0;31,0;100;0,0;1,0;3,0;2,0;row;0,0;False;False;False;1,36500000954;True;0,900000095367
UGB1995w;experiment;2017-04-28-10-15-30;2,0;32,0;100;0,0;2,0;3,0;1,0;row;1,0;False;True;False;2,59999990463;True;1,03199982643
UGB1995w;experiment;2017-04-28-10-15-30;2,0;33,0;100;1,0;0,0;3,0;2,0;column;1,0;True;True;True;2,76700019836;True;1,10699987411
UGB1995w;experiment;2017-04-28-10-15-30;2,0;34,0;100;1,0;0,0;3,0;2,0;column;0,0;False;True;False;1,26600003242;True;1,19799995422
UGB1995w;experiment;2017-04-28-10-15-30;2,0;35,0;100;2,0;3,0;0,0;1,0;column;0,0;True;True;True;1,16600012779;True;1,48699998856
UGB1995w;experiment;2017-04-28-10-15-30;2,0;36,0;100;0,0;1,0;3,0;2,0;row;1,0;False;False;False;1,23300004005;True;0,905999898911
UGB1995w;experiment;2017-04-28-10-15-30;2,0;37,0;100;3,0;1,0;0,0;2,0;row;1,0;False;True;False;1,16799998283;True;0,933000087738
UGB1995w;experiment;2017-04-28-10-15-30;2,0;38,0;100;0,0;3,0;1,0;2,0;column;0,0;True;True;False;1,26699995995;False;1,39900016785
UGB1995w;experiment;2017-04-28-10-15-30;2,0;39,0;100;2,0;3,0;1,0;0,0;column;1,0;False;False;False;1,13400006294;True;0,971999883652
UGB1995w;experiment;2017-04-28-10-15-30;2,0;40,0;100;2,0;1,0;3,0;0,0;row;1,0;False;False;False;1,26599979401;True;0,524000167847
UGB1995w;experiment;2017-04-28-10-15-30;2,0;41,0;100;1,0;0,0;3,0;2,0;row;0,0;False;False;False;1,5;True;0,799000024796
UGB1995w;experiment;2017-04-28-10-15-30;2,0;42,0;100;2,0;1,0;0,0;3,0;column;1,0;False;False;False;1,7990000248;True;0,864000082016
UGB1995w;experiment;2017-04-28-10-15-30;2,0;43,0;100;0,0;3,0;1,0;2,0;column;1,0;False;False;False;1,5649998188;True;1,33200001717
UGB1995w;experiment;2017-04-28-10-15-30;2,0;44,0;100;3,0;1,0;2,0;0,0;row;1,0;False;True;False;1,76699995995;True;1,09199976921
UGB1995w;experiment;2017-04-28-10-15-30;2,0;45,0;100;1,0;0,0;2,0;3,0;column;1,0;False;False;True;1,86800003052;False;0,600000143051
UGB1995w;experiment;2017-04-28-10-15-30;2,0;46,0;100;2,0;0,0;3,0;1,0;row;1,0;True;False;False;1,23399996758;False;1,46199989319
UGB1995w;experiment;2017-04-28-10-15-30;2,0;47,0;100;3,0;1,0;0,0;2,0;column;1,0;True;True;True;1,23299980164;True;0,763000011444
UGB1995w;experiment;2017-04-28-10-15-30;2,0;48,0;100;3,0;1,0;0,0;2,0;column;0,0;True;True;True;2,0;True;0,697999954224
UGB1995w;experiment;2017-04-28-10-15-30;3,0;1,0;1000;3,0;1,0;0,0;2,0;column;0,0;True;False;False;1,26600003242;False;1,09999990463
UGB1995w;experiment;2017-04-28-10-15-30;3,0;2,0;1000;0,0;3,0;2,0;1,0;column;1,0;False;True;False;2,13400006294;True;1,10599994659
UGB1995w;experiment;2017-04-28-10-15-30;3,0;3,0;1000;3,0;2,0;0,0;1,0;row;1,0;False;True;False;1,46600008011;True;0,895999908447
UGB1995w;experiment;2017-04-28-10-15-30;3,0;4,0;1000;3,0;1,0;2,0;0,0;column;0,0;False;False;False;2,53299999237;True;0,898000001907
UGB1995w;experiment;2017-04-28-10-15-30;3,0;5,0;1000;2,0;3,0;1,0;0,0;column;0,0;False;True;False;1,09999990463;True;0,835000038147
UGB1995w;experiment;2017-04-28-10-15-30;3,0;6,0;1000;1,0;0,0;3,0;2,0;column;0,0;False;True;False;1,83299994469;True;0,663000106812
UGB1995w;experiment;2017-04-28-10-15-30;3,0;7,0;1000;2,0;3,0;0,0;1,0;column;0,0;False;True;False;1,26699995995;True;1,13300013542
UGB1995w;experiment;2017-04-28-10-15-30;3,0;8,0;1000;3,0;0,0;2,0;1,0;column;1,0;False;True;False;1,26699995995;True;1,26200008392
UGB1995w;experiment;2017-04-28-10-15-30;3,0;9,0;1000;0,0;1,0;3,0;2,0;column;1,0;True;False;False;1,83100008965;False;0,631000041962
UGB1995w;experiment;2017-04-28-10-15-30;3,0;10,0;1000;3,0;0,0;1,0;2,0;column;1,0;False;False;False;2,06900000572;True;0,592000007629
UGB1995w;experiment;2017-04-28-10-15-30;3,0;11,0;1000;2,0;1,0;3,0;0,0;column;0,0;True;False;True;1,53299999237;True;1,2009999752
UGB1995w;experiment;2017-04-28-10-15-30;3,0;12,0;1000;1,0;3,0;0,0;2,0;column;1,0;True;True;True;1,83399987221;True;0,673000097275
UGB1995w;experiment;2017-04-28-10-15-30;3,0;13,0;1000;2,0;3,0;1,0;0,0;row;1,0;False;True;False;1,76599979401;True;0,661000013351
UGB1995w;experiment;2017-04-28-10-15-30;3,0;14,0;1000;2,0;3,0;0,0;1,0;row;0,0;False;True;False;1,80000019073;True;0,790999889374
UGB1995w;experiment;2017-04-28-10-15-30;3,0;15,0;1000;0,0;1,0;3,0;2,0;row;0,0;False;False;False;1,56500005722;True;0,823999881744
UGB1995w;experiment;2017-04-28-10-15-30;3,0;16,0;1000;3,0;2,0;0,0;1,0;column;1,0;False;False;False;1,39899992943;True;0,996999979019
UGB1995w;experiment;2017-04-28-10-15-30;3,0;17,0;1000;0,0;2,0;1,0;3,0;column;0,0;False;False;False;1,96600008011;True;1,13000011444
UGB1995w;experiment;2017-04-28-10-15-30;3,0;18,0;1000;2,0;1,0;0,0;3,0;row;0,0;False;False;False;2,36599993706;True;0,958999872208
UGB1995w;experiment;2017-04-28-10-15-30;3,0;19,0;1000;0,0;3,0;2,0;1,0;column;0,0;True;True;True;1,36800003052;True;0,963000059128
UGB1995w;experiment;2017-04-28-10-15-30;3,0;20,0;1000;3,0;1,0;2,0;0,0;row;0,0;False;True;False;1,23199987411;True;1,26499986649
UGB1995w;experiment;2017-04-28-10-15-30;3,0;21,0;1000;1,0;3,0;0,0;2,0;column;0,0;True;False;True;1,20000004768;True;1,26600003242
UGB1995w;experiment;2017-04-28-10-15-30;3,0;22,0;1000;0,0;2,0;1,0;3,0;row;1,0;False;True;False;1,2650001049;True;1,4889998436
UGB1995w;experiment;2017-04-28-10-15-30;3,0;23,0;1000;2,0;3,0;0,0;1,0;row;1,0;False;False;False;1,73399996758;True;0,899000167847
UGB1995w;experiment;2017-04-28-10-15-30;3,0;24,0;1000;1,0;3,0;2,0;0,0;column;1,0;True;True;True;2,56299996376;True;1,19799995422
UGB1995w;experiment;2017-04-28-10-15-30;3,0;25,0;1000;2,0;1,0;3,0;0,0;column;0,0;False;True;False;2,26499986649;True;1,29100012779
UGB1995w;experiment;2017-04-28-10-15-30;3,0;26,0;1000;2,0;1,0;0,0;3,0;column;0,0;True;False;True;2,5;True;0,796000003815
UGB1995w;experiment;2017-04-28-10-15-30;3,0;27,0;1000;1,0;0,0;2,0;3,0;column;1,0;False;True;False;2,80000019073;True;0,728999853134
UGB1995w;experiment;2017-04-28-10-15-30;3,0;28,0;1000;0,0;2,0;1,0;3,0;column;1,0;True;False;True;1,73399996758;True;1,09400010109
UGB1995w;experiment;2017-04-28-10-15-30;3,0;29,0;1000;2,0;1,0;3,0;0,0;row;0,0;False;False;False;1,132999897;True;1,20000004768
UGB1995w;experiment;2017-04-28-10-15-30;3,0;30,0;1000;2,0;1,0;3,0;0,0;row;0,0;True;False;False;1,66799998283;False;1,03400015831
UGB1995w;experiment;2017-04-28-10-15-30;3,0;31,0;1000;3,0;0,0;1,0;2,0;row;0,0;False;True;False;1,36500000954;True;1,0569999218
UGB1995w;experiment;2017-04-28-10-15-30;3,0;32,0;1000;3,0;1,0;2,0;0,0;row;0,0;True;True;True;1,43400001526;True;1,2650001049
UGB1995w;experiment;2017-04-28-10-15-30;3,0;33,0;1000;0,0;1,0;2,0;3,0;row;0,0;False;True;False;2,49799990654;True;0,591000080109
UGB1995w;experiment;2017-04-28-10-15-30;3,0;34,0;1000;0,0;1,0;3,0;2,0;column;0,0;True;False;True;1,29999995232;True;0,774000167847
UGB1995w;experiment;2017-04-28-10-15-30;3,0;35,0;1000;0,0;1,0;3,0;2,0;row;1,0;False;False;True;3,6139998436;False;0,835000038147
UGB1995w;experiment;2017-04-28-10-15-30;3,0;36,0;1000;3,0;0,0;1,0;2,0;row;1,0;True;True;True;1,53299999237;True;0,692000150681
UGB1995w;experiment;2017-04-28-10-15-30;3,0;37,0;1000;3,0;0,0;1,0;2,0;column;0,0;True;False;True;1,06700015068;True;1,43200016022
UGB1995w;experiment;2017-04-28-10-15-30;3,0;38,0;1000;2,0;0,0;1,0;3,0;column;0,0;False;False;False;2,06699991226;True;1,06399989128
UGB1995w;experiment;2017-04-28-10-15-30;3,0;39,0;1000;0,0;1,0;2,0;3,0;row;1,0;True;False;False;0,832000017166;False;1,40899991989
UGB1995w;experiment;2017-04-28-10-15-30;3,0;40,0;1000;1,0;2,0;0,0;3,0;column;1,0;True;True;False;0,665999889374;False;1,42499995232
UGB1995w;experiment;2017-04-28-10-15-30;3,0;41,0;1000;2,0;0,0;1,0;3,0;row;0,0;False;False;False;1,06699991226;True;1,13199996948
UGB1995w;experiment;2017-04-28-10-15-30;3,0;42,0;1000;2,0;0,0;3,0;1,0;row;0,0;False;True;False;0,998999834061;True;0,531000137329
UGB1995w;experiment;2017-04-28-10-15-30;3,0;43,0;1000;1,0;2,0;0,0;3,0;column;0,0;True;False;False;0,933000087738;False;0,736999988556
UGB1995w;experiment;2017-04-28-10-15-30;3,0;44,0;1000;2,0;1,0;0,0;3,0;column;1,0;False;False;False;1,53299999237;True;0,556999921799
UGB1995w;experiment;2017-04-28-10-15-30;3,0;45,0;1000;3,0;1,0;2,0;0,0;column;0,0;True;True;False;0,835000038147;False;0,856999874115
UGB1995w;experiment;2017-04-28-10-15-30;3,0;46,0;1000;3,0;2,0;1,0;0,0;row;0,0;True;True;True;1,40000009537;True;1,33299994469
UGB1995w;experiment;2017-04-28-10-15-30;3,0;47,0;1000;1,0;2,0;0,0;3,0;row;0,0;False;False;False;1,7990000248;True;0,836999893188
UGB1995w;experiment;2017-04-28-10-15-30;3,0;48,0;1000;3,0;0,0;1,0;2,0;row;0,0;True;True;False;1,03299999237;False;1,46300005913
UGB1995w;experiment;2017-04-28-10-15-30;4,0;1,0;100;1,0;3,0;2,0;0,0;column;0,0;True;False;False;2,30000019073;False;0,897000074387
UGB1995w;experiment;2017-04-28-10-15-30;4,0;2,0;100;0,0;2,0;3,0;1,0;row;0,0;False;True;False;1,80599999428;True;0,900000095367
UGB1995w;experiment;2017-04-28-10-15-30;4,0;3,0;100;1,0;0,0;3,0;2,0;column;1,0;False;False;False;2,2650001049;True;0,825999975204
UGB1995w;experiment;2017-04-28-10-15-30;4,0;4,0;100;2,0;3,0;1,0;0,0;row;1,0;True;True;True;1,39899992943;True;1,15900015831
UGB1995w;experiment;2017-04-28-10-15-30;4,0;5,0;100;1,0;2,0;0,0;3,0;row;0,0;True;True;True;1,56599998474;True;0,891999959946
UGB1995w;experiment;2017-04-28-10-15-30;4,0;6,0;100;1,0;3,0;2,0;0,0;column;0,0;False;False;False;2,13199996948;True;1,23100018501
UGB1995w;experiment;2017-04-28-10-15-30;4,0;7,0;100;2,0;0,0;1,0;3,0;column;0,0;False;True;True;1,36599993706;False;1,21199989319
UGB1995w;experiment;2017-04-28-10-15-30;4,0;8,0;100;2,0;1,0;3,0;0,0;row;1,0;True;False;True;1,20100021362;True;1,00200009346
UGB1995w;experiment;2017-04-28-10-15-30;4,0;9,0;100;1,0;3,0;2,0;0,0;column;1,0;False;False;False;1,43300008774;True;0,832999944687
UGB1995w;experiment;2017-04-28-10-15-30;4,0;10,0;100;3,0;0,0;2,0;1,0;column;1,0;False;True;False;1,63100004196;True;1,16799998283
UGB1995w;experiment;2017-04-28-10-15-30;4,0;11,0;100;1,0;2,0;3,0;0,0;row;1,0;False;False;False;1,33299994469;True;0,964999914169
UGB1995w;experiment;2017-04-28-10-15-30;4,0;12,0;100;0,0;1,0;2,0;3,0;column;1,0;True;True;False;1,07800006866;False;0,525000095367
UGB1995w;experiment;2017-04-28-10-15-30;4,0;13,0;100;2,0;1,0;3,0;0,0;column;0,0;False;True;False;2,13399982452;True;0,769000053406
UGB1995w;experiment;2017-04-28-10-15-30;4,0;14,0;100;1,0;2,0;3,0;0,0;column;1,0;True;False;True;1,132999897;True;1,23000001907
UGB1995w;experiment;2017-04-28-10-15-30;4,0;15,0;100;3,0;0,0;1,0;2,0;column;0,0;False;True;False;1,0;True;0,59299993515
UGB1995w;experiment;2017-04-28-10-15-30;4,0;16,0;100;2,0;1,0;3,0;0,0;row;0,0;False;False;False;1,03299999237;True;0,905999898911
UGB1995w;experiment;2017-04-28-10-15-30;4,0;17,0;100;2,0;3,0;1,0;0,0;column;1,0;True;False;False;1,09999990463;False;1,50099992752
UGB1995w;experiment;2017-04-28-10-15-30;4,0;18,0;100;3,0;0,0;1,0;2,0;column;1,0;True;True;True;1,36599993706;True;0,799000024796
UGB1995w;experiment;2017-04-28-10-15-30;4,0;19,0;100;0,0;2,0;1,0;3,0;row;1,0;True;False;True;0,99799990654;True;0,858999967575
UGB1995w;experiment;2017-04-28-10-15-30;4,0;20,0;100;2,0;1,0;3,0;0,0;column;1,0;True;False;False;1,56700015068;False;1,16600012779
UGB1995w;experiment;2017-04-28-10-15-30;4,0;21,0;100;1,0;2,0;3,0;0,0;row;0,0;True;True;True;1,40000009537;True;1,36800003052
UGB1995w;experiment;2017-04-28-10-15-30;4,0;22,0;100;0,0;2,0;3,0;1,0;column;0,0;False;True;False;1,13400006294;True;0,855999946594
UGB1995w;experiment;2017-04-28-10-15-30;4,0;23,0;100;3,0;1,0;0,0;2,0;row;1,0;True;True;True;2,19799995422;True;0,825000047684
UGB1995w;experiment;2017-04-28-10-15-30;4,0;24,0;100;0,0;2,0;3,0;1,0;column;0,0;True;True;False;1,29999995232;False;0,595999956131
UGB1995w;experiment;2017-04-28-10-15-30;4,0;25,0;100;3,0;2,0;1,0;0,0;row;0,0;True;True;True;1,63899993896;True;0,832000017166
UGB1995w;experiment;2017-04-28-10-15-30;4,0;26,0;100;3,0;1,0;0,0;2,0;row;0,0;True;False;True;1,13300013542;True;1,23600006104
UGB1995w;experiment;2017-04-28-10-15-30;4,0;27,0;100;0,0;3,0;1,0;2,0;row;1,0;True;True;False;1,36699986458;False;1,15900015831
UGB1995w;experiment;2017-04-28-10-15-30;4,0;28,0;100;2,0;1,0;3,0;0,0;column;0,0;True;True;True;1,96700000763;True;0,722999811172
UGB1995w;experiment;2017-04-28-10-15-30;4,0;29,0;100;0,0;2,0;1,0;3,0;row;0,0;True;False;True;1,86800003052;True;0,726999998093
UGB1995w;experiment;2017-04-28-10-15-30;4,0;30,0;100;3,0;0,0;2,0;1,0;row;0,0;False;True;False;1,29999995232;True;1,05800008774
UGB1995w;experiment;2017-04-28-10-15-30;4,0;31,0;100;0,0;3,0;1,0;2,0;row;0,0;True;True;False;1,66599988937;False;1,29799985886
UGB1995w;experiment;2017-04-28-10-15-30;4,0;32,0;100;2,0;0,0;3,0;1,0;row;0,0;False;False;False;1,43400001526;True;1,06299996376
UGB1995w;experiment;2017-04-28-10-15-30;4,0;33,0;100;3,0;1,0;2,0;0,0;row;0,0;False;True;False;1,64800000191;True;0,625999927521
UGB1995w;experiment;2017-04-28-10-15-30;4,0;34,0;100;1,0;0,0;2,0;3,0;column;1,0;True;True;True;2,03200006485;True;1,33299994469
UGB1995w;experiment;2017-04-28-10-15-30;4,0;35,0;100;0,0;1,0;3,0;2,0;column;0,0;False;True;False;1,36599993706;True;0,600999832153
UGB1995w;experiment;2017-04-28-10-15-30;4,0;36,0;100;0,0;2,0;1,0;3,0;row;0,0;False;True;False;1,66499996185;True;1,49000000954
UGB1995w;experiment;2017-04-28-10-15-30;4,0;37,0;100;2,0;0,0;1,0;3,0;column;1,0;False;True;False;1,39999985695;True;0,772000074387
UGB1995w;experiment;2017-04-28-10-15-30;4,0;38,0;100;3,0;0,0;1,0;2,0;row;1,0;False;False;False;2,26600003242;True;0,856999874115
UGB1995w;experiment;2017-04-28-10-15-30;4,0;39,0;100;3,0;2,0;0,0;1,0;row;0,0;False;True;False;1,07299995422;True;1,26900005341
UGB1995w;experiment;2017-04-28-10-15-30;4,0;40,0;100;1,0;2,0;3,0;0,0;row;0,0;False;False;False;0,900000095367;True;1,06700015068
UGB1995w;experiment;2017-04-28-10-15-30;4,0;41,0;100;1,0;2,0;0,0;3,0;row;1,0;False;False;False;1,29899978638;True;1,2650001049
UGB1995w;experiment;2017-04-28-10-15-30;4,0;42,0;100;3,0;1,0;2,0;0,0;column;0,0;False;False;False;1,53400015831;True;1,05999994278
UGB1995w;experiment;2017-04-28-10-15-30;4,0;43,0;100;0,0;2,0;1,0;3,0;row;1,0;False;True;False;1,53399991989;True;0,567999839783
UGB1995w;experiment;2017-04-28-10-15-30;4,0;44,0;100;1,0;3,0;0,0;2,0;column;1,0;True;True;False;2,03299999237;False;0,898000001907
UGB1995w;experiment;2017-04-28-10-15-30;4,0;45,0;100;1,0;3,0;0,0;2,0;column;0,0;True;True;True;1,46700000763;True;0,68700003624
UGB1995w;experiment;2017-04-28-10-15-30;4,0;46,0;100;0,0;1,0;3,0;2,0;row;0,0;True;True;True;1,99800014496;True;1,42700004578
UGB1995w;experiment;2017-04-28-10-15-30;4,0;47,0;100;0,0;3,0;1,0;2,0;column;1,0;True;False;True;0,766000032425;True;1,00200009346
UGB1995w;experiment;2017-04-28-10-15-30;4,0;48,0;100;2,0;1,0;0,0;3,0;column;0,0;False;False;False;1,2460000515;True;0,929999828339
UGB1995w;experiment;2017-04-28-10-15-30;5,0;1,0;1000;1,0;0,0;2,0;3,0;column;0,0;False;True;False;1,16699981689;True;1,48300004005
UGB1995w;experiment;2017-04-28-10-15-30;5,0;2,0;1000;1,0;0,0;3,0;2,0;row;0,0;False;True;False;1,23199987411;True;1,10099983215
UGB1995w;experiment;2017-04-28-10-15-30;5,0;3,0;1000;1,0;3,0;2,0;0,0;row;1,0;False;True;False;1,06699991226;True;0,672999858856
UGB1995w;experiment;2017-04-28-10-15-30;5,0;4,0;1000;0,0;1,0;2,0;3,0;column;0,0;False;True;False;1,76700019836;True;0,592000007629
UGB1995w;experiment;2017-04-28-10-15-30;5,0;5,0;1000;3,0;1,0;2,0;0,0;row;1,0;False;False;False;1,33200001717;True;0,604000091553
UGB1995w;experiment;2017-04-28-10-15-30;5,0;6,0;1000;2,0;3,0;0,0;1,0;column;1,0;True;False;False;2,39999985695;False;1,13199996948
UGB1995w;experiment;2017-04-28-10-15-30;5,0;7,0;1000;1,0;3,0;0,0;2,0;row;0,0;True;False;True;1,06599998474;True;0,637000083923
UGB1995w;experiment;2017-04-28-10-15-30;5,0;8,0;1000;1,0;3,0;0,0;2,0;row;0,0;False;True;False;1,06699991226;True;0,633000135422
UGB1995w;experiment;2017-04-28-10-15-30;5,0;9,0;1000;0,0;2,0;1,0;3,0;row;0,0;False;True;False;2,16700005531;True;0,833000183105
UGB1995w;experiment;2017-04-28-10-15-30;5,0;10,0;1000;0,0;2,0;1,0;3,0;row;1,0;True;False;True;1,00099992752;True;1,19799995422
UGB1995w;experiment;2017-04-28-10-15-30;5,0;11,0;1000;0,0;3,0;2,0;1,0;row;0,0;False;False;True;4,69799995422;False;0,601000070572
UGB1995w;experiment;2017-04-28-10-15-30;5,0;12,0;1000;2,0;0,0;3,0;1,0;row;0,0;True;False;False;1,26699995995;False;0,56200003624
UGB1995w;experiment;2017-04-28-10-15-30;5,0;13,0;1000;3,0;1,0;0,0;2,0;row;0,0;True;False;True;0,833999872208;True;0,93399977684
UGB1995w;experiment;2017-04-28-10-15-30;5,0;14,0;1000;1,0;3,0;0,0;2,0;column;0,0;False;False;False;2,79999995232;True;0,666000127792
UGB1995w;experiment;2017-04-28-10-15-30;5,0;15,0;1000;1,0;2,0;3,0;0,0;column;1,0;False;True;False;1,40000009537;True;0,803999900818
UGB1995w;experiment;2017-04-28-10-15-30;5,0;16,0;1000;2,0;0,0;3,0;1,0;column;0,0;False;True;True;1,5;False;1,05500006676
UGB1995w;experiment;2017-04-28-10-15-30;5,0;17,0;1000;3,0;1,0;2,0;0,0;column;1,0;True;False;False;4,4929997921;False;0,934000015259
UGB1995w;experiment;2017-04-28-10-15-30;5,0;18,0;1000;2,0;3,0;1,0;0,0;column;1,0;True;False;False;1,26600003242;False;1,02500009537
UGB1995w;experiment;2017-04-28-10-15-30;5,0;19,0;1000;0,0;2,0;3,0;1,0;row;0,0;False;False;False;1,33299994469;True;1,19899988174
UGB1995w;experiment;2017-04-28-10-15-30;5,0;20,0;1000;0,0;3,0;2,0;1,0;row;1,0;False;True;False;1,26799988747;True;1,29999995232
UGB1995w;experiment;2017-04-28-10-15-30;5,0;21,0;1000;1,0;3,0;2,0;0,0;row;0,0;False;False;False;2,14100003242;True;0,564999818802
UGB1995w;experiment;2017-04-28-10-15-30;5,0;22,0;1000;1,0;0,0;3,0;2,0;row;1,0;True;True;True;2,73699998856;True;1,32099986076
UGB1995w;experiment;2017-04-28-10-15-30;5,0;23,0;1000;0,0;2,0;3,0;1,0;column;0,0;True;False;True;2,5;True;0,822999954224
UGB1995w;experiment;2017-04-28-10-15-30;5,0;24,0;1000;1,0;2,0;0,0;3,0;row;1,0;False;True;False;2,13300013542;True;1,00099992752
UGB1995w;experiment;2017-04-28-10-15-30;5,0;25,0;1000;0,0;3,0;2,0;1,0;row;1,0;True;False;True;1,53400015831;True;1,46399998665
UGB1995w;experiment;2017-04-28-10-15-30;5,0;26,0;1000;1,0;3,0;0,0;2,0;row;1,0;True;False;True;1,43300008774;True;0,975999832153
UGB1995w;experiment;2017-04-28-10-15-30;5,0;27,0;1000;1,0;0,0;2,0;3,0;column;1,0;True;True;False;1,23300004005;False;0,967000007629
UGB1995w;experiment;2017-04-28-10-15-30;5,0;28,0;1000;0,0;2,0;3,0;1,0;row;1,0;True;True;True;2,1819999218;True;1,36599993706
UGB1995w;experiment;2017-04-28-10-15-30;5,0;29,0;1000;2,0;1,0;0,0;3,0;row;0,0;True;True;True;0,733000040054;True;1,38999986649
UGB1995w;experiment;2017-04-28-10-15-30;5,0;30,0;1000;0,0;1,0;2,0;3,0;row;1,0;False;False;False;1,40000009537;True;0,969999790192
UGB1995w;experiment;2017-04-28-10-15-30;5,0;31,0;1000;2,0;0,0;1,0;3,0;row;0,0;True;True;True;1,81200003624;True;0,828000068665
UGB1995w;experiment;2017-04-28-10-15-30;5,0;32,0;1000;1,0;2,0;0,0;3,0;column;0,0;False;False;False;1,09999990463;True;0,993999958038
UGB1995w;experiment;2017-04-28-10-15-30;5,0;33,0;1000;0,0;1,0;3,0;2,0;row;0,0;True;True;True;1,93400001526;True;0,865000009537
UGB1995w;experiment;2017-04-28-10-15-30;5,0;34,0;1000;3,0;1,0;0,0;2,0;column;1,0;False;True;False;1,46599984169;True;1,22499990463
UGB1995w;experiment;2017-04-28-10-15-30;5,0;35,0;1000;0,0;1,0;3,0;2,0;column;1,0;False;True;False;1,03200006485;True;0,528000116348
UGB1995w;experiment;2017-04-28-10-15-30;5,0;36,0;1000;2,0;1,0;3,0;0,0;column;1,0;True;False;False;2,5;False;1,03299999237
UGB1995w;experiment;2017-04-28-10-15-30;5,0;37,0;1000;1,0;0,0;3,0;2,0;column;1,0;True;True;True;1,0;True;0,84700012207
UGB1995w;experiment;2017-04-28-10-15-30;5,0;38,0;1000;2,0;0,0;3,0;1,0;row;1,0;True;True;True;1,39900016785;True;1,22800016403
UGB1995w;experiment;2017-04-28-10-15-30;5,0;39,0;1000;2,0;3,0;0,0;1,0;column;1,0;False;False;False;1,56599998474;True;0,874000072479
UGB1995w;experiment;2017-04-28-10-15-30;5,0;40,0;1000;2,0;0,0;3,0;1,0;column;0,0;True;False;False;1,60100007057;False;0,898999929428
UGB1995w;experiment;2017-04-28-10-15-30;5,0;41,0;1000;2,0;1,0;3,0;0,0;row;1,0;True;True;True;2,20000004768;True;1,10299992561
UGB1995w;experiment;2017-04-28-10-15-30;5,0;42,0;1000;0,0;3,0;1,0;2,0;column;0,0;True;False;True;1,13400006294;True;0,765000104904
UGB1995w;experiment;2017-04-28-10-15-30;5,0;43,0;1000;1,0;3,0;2,0;0,0;column;0,0;False;True;True;2,13100004196;False;1,09900021553
UGB1995w;experiment;2017-04-28-10-15-30;5,0;44,0;1000;1,0;2,0;3,0;0,0;row;0,0;True;True;False;2,23300004005;False;0,993000030518
UGB1995w;experiment;2017-04-28-10-15-30;5,0;45,0;1000;3,0;2,0;0,0;1,0;row;0,0;True;True;True;1,0;True;1,45700001717
UGB1995w;experiment;2017-04-28-10-15-30;5,0;46,0;1000;0,0;2,0;1,0;3,0;row;0,0;True;False;True;0,667000055313;True;1,50500011444
UGB1995w;experiment;2017-04-28-10-15-30;5,0;47,0;1000;3,0;0,0;2,0;1,0;row;1,0;True;False;False;1,33200001717;False;1,13199996948
UGB1995w;experiment;2017-04-28-10-15-30;5,0;48,0;1000;3,0;0,0;2,0;1,0;row;0,0;False;True;True;1,20000004768;False;1,26600003242
UGB1995w;experiment;2017-04-28-10-15-30;6,0;1,0;-100;1,0;3,0;2,0;0,0;row;1,0;False;False;False;1,81700015068;True;0,630999803543
UGB1995w;experiment;2017-04-28-10-15-30;6,0;2,0;-100;3,0;2,0;0,0;1,0;column;0,0;True;False;False;1,382999897;False;1,16000008583
UGB1995w;experiment;2017-04-28-10-15-30;6,0;3,0;-100;0,0;3,0;1,0;2,0;column;0,0;True;True;True;0,750999927521;True;0,898999929428
UGB1995w;experiment;2017-04-28-10-15-30;6,0;4,0;-100;1,0;3,0;0,0;2,0;column;1,0;False;False;False;1,34999990463;True;0,664000034332
UGB1995w;experiment;2017-04-28-10-15-30;6,0;5,0;-100;1,0;0,0;2,0;3,0;column;0,0;False;True;False;1,31599998474;True;1,05800008774
UGB1995w;experiment;2017-04-28-10-15-30;6,0;6,0;-100;2,0;3,0;1,0;0,0;row;1,0;False;True;False;1,28299999237;True;1,10000014305
UGB1995w;experiment;2017-04-28-10-15-30;6,0;7,0;-100;3,0;1,0;0,0;2,0;row;1,0;False;True;False;1,6289999485;True;0,526000022888
UGB1995w;experiment;2017-04-28-10-15-30;6,0;8,0;-100;1,0;0,0;3,0;2,0;row;0,0;True;False;True;1,11600017548;True;0,867000102997
UGB1995w;experiment;2017-04-28-10-15-30;6,0;9,0;-100;2,0;3,0;0,0;1,0;column;0,0;True;True;True;1,28200006485;True;1,52399992943
UGB1995w;experiment;2017-04-28-10-15-30;6,0;10,0;-100;1,0;2,0;3,0;0,0;column;0,0;True;True;True;0,650000095367;True;0,523999929428
UGB1995w;experiment;2017-04-28-10-15-30;6,0;11,0;-100;3,0;0,0;1,0;2,0;row;1,0;False;True;False;1,44900012016;True;1,08999991417
UGB1995w;experiment;2017-04-28-10-15-30;6,0;12,0;-100;1,0;2,0;0,0;3,0;column;0,0;True;False;True;0,582999944687;True;1,367000103
UGB1995w;experiment;2017-04-28-10-15-30;6,0;13,0;-100;0,0;2,0;1,0;3,0;row;0,0;False;True;False;0,884000062943;True;1,06699991226
UGB1995w;experiment;2017-04-28-10-15-30;6,0;14,0;-100;0,0;2,0;1,0;3,0;column;0,0;False;True;False;1,21900010109;True;1,13000011444
UGB1995w;experiment;2017-04-28-10-15-30;6,0;15,0;-100;0,0;2,0;1,0;3,0;row;1,0;True;False;True;1,21699976921;True;0,733999967575
UGB1995w;experiment;2017-04-28-10-15-30;6,0;16,0;-100;0,0;1,0;3,0;2,0;column;1,0;False;False;False;1,38099980354;True;0,699999809265
UGB1995w;experiment;2017-04-28-10-15-30;6,0;17,0;-100;0,0;1,0;2,0;3,0;column;1,0;False;True;False;10,7829999924;True;0,565999984741
UGB1995w;experiment;2017-04-28-10-15-30;6,0;18,0;-100;1,0;3,0;2,0;0,0;column;0,0;True;True;False;1,14899992943;False;0,590000152588
UGB1995w;experiment;2017-04-28-10-15-30;6,0;19,0;-100;0,0;1,0;2,0;3,0;row;0,0;True;False;True;1,24900007248;True;0,999000072479
UGB1995w;experiment;2017-04-28-10-15-30;6,0;20,0;-100;0,0;2,0;3,0;1,0;row;0,0;True;True;True;1,21599984169;True;1,09699988365
UGB1995w;experiment;2017-04-28-10-15-30;6,0;21,0;-100;1,0;3,0;2,0;0,0;column;0,0;False;True;False;1,21599984169;True;0,655999898911
UGB1995w;experiment;2017-04-28-10-15-30;6,0;22,0;-100;1,0;0,0;2,0;3,0;column;1,0;False;True;True;1,99199986458;False;0,605000019073
UGB1995w;experiment;2017-04-28-10-15-30;6,0;23,0;-100;0,0;1,0;2,0;3,0;column;0,0;True;True;True;1,11599993706;True;0,933000087738
UGB1995w;experiment;2017-04-28-10-15-30;6,0;24,0;-100;3,0;0,0;2,0;1,0;row;0,0;False;False;False;1,31599998474;True;0,634999990463
UGB1995w;experiment;2017-04-28-10-15-30;6,0;25,0;-100;2,0;3,0;0,0;1,0;column;0,0;False;True;False;1,85000014305;True;0,858999967575
UGB1995w;experiment;2017-04-28-10-15-30;6,0;26,0;-100;3,0;0,0;1,0;2,0;row;1,0;True;False;True;1,25099992752;True;1,36199998856
UGB1995w;experiment;2017-04-28-10-15-30;6,0;27,0;-100;2,0;0,0;1,0;3,0;column;0,0;False;True;False;1,45000004768;True;0,933000087738
UGB1995w;experiment;2017-04-28-10-15-30;6,0;28,0;-100;2,0;3,0;0,0;1,0;row;0,0;False;False;False;1,25;True;0,530000209808
UGB1995w;experiment;2017-04-28-10-15-30;6,0;29,0;-100;3,0;2,0;1,0;0,0;column;1,0;True;False;True;1,0490000248;True;0,93499994278
UGB1995w;experiment;2017-04-28-10-15-30;6,0;30,0;-100;0,0;1,0;2,0;3,0;column;1,0;True;True;True;1,04999995232;True;1,46600008011
UGB1995w;experiment;2017-04-28-10-15-30;6,0;31,0;-100;3,0;2,0;0,0;1,0;row;0,0;False;False;False;1,03600001335;True;1,46499991417
UGB1995w;experiment;2017-04-28-10-15-30;6,0;32,0;-100;1,0;0,0;3,0;2,0;column;1,0;True;True;False;1,35199999809;False;1,39600014687
UGB1995w;experiment;2017-04-28-10-15-30;6,0;33,0;-100;3,0;0,0;1,0;2,0;column;1,0;False;True;False;1,04999995232;True;0,964999914169
UGB1995w;experiment;2017-04-28-10-15-30;6,0;34,0;-100;0,0;2,0;3,0;1,0;column;1,0;True;False;True;1,14899992943;True;1,42899990082
UGB1995w;experiment;2017-04-28-10-15-30;6,0;35,0;-100;1,0;3,0;2,0;0,0;column;1,0;True;False;False;1,34999990463;False;1,23199987411
UGB1995w;experiment;2017-04-28-10-15-30;6,0;36,0;-100;3,0;0,0;2,0;1,0;row;1,0;True;True;True;1,21700000763;True;1,26600003242
UGB1995w;experiment;2017-04-28-10-15-30;6,0;37,0;-100;1,0;2,0;3,0;0,0;column;0,0;False;True;False;1,5490000248;True;0,764999866486
UGB1995w;experiment;2017-04-28-10-15-30;6,0;38,0;-100;3,0;1,0;2,0;0,0;column;1,0;False;False;False;1,65199995041;True;0,990000009537
UGB1995w;experiment;2017-04-28-10-15-30;6,0;39,0;-100;3,0;1,0;0,0;2,0;row;0,0;False;False;False;1,08300018311;True;0,539000034332
UGB1995w;experiment;2017-04-28-10-15-30;6,0;40,0;-100;0,0;3,0;2,0;1,0;row;0,0;False;True;False;1,18499994278;True;1,16700005531
UGB1995w;experiment;2017-04-28-10-15-30;6,0;41,0;-100;2,0;0,0;1,0;3,0;row;0,0;True;True;True;0,717000007629;True;1,32999992371
UGB1995w;experiment;2017-04-28-10-15-30;6,0;42,0;-100;0,0;3,0;1,0;2,0;column;1,0;True;True;True;0,849999904633;True;1,36499977112
UGB1995w;experiment;2017-04-28-10-15-30;6,0;43,0;-100;2,0;1,0;3,0;0,0;column;1,0;False;False;False;1,41700005531;True;1,3599998951
UGB1995w;experiment;2017-04-28-10-15-30;6,0;44,0;-100;3,0;2,0;1,0;0,0;row;0,0;True;True;True;1,23699998856;True;1,03800010681
UGB1995w;experiment;2017-04-28-10-15-30;6,0;45,0;-100;2,0;1,0;3,0;0,0;column;0,0;False;False;False;1,38199996948;True;0,865999937057
UGB1995w;experiment;2017-04-28-10-15-30;6,0;46,0;-100;1,0;3,0;0,0;2,0;row;1,0;False;True;False;1,28299999237;True;1,25600004196
UGB1995w;experiment;2017-04-28-10-15-30;6,0;47,0;-100;0,0;3,0;1,0;2,0;column;0,0;False;True;False;1,28999996185;True;0,797999858856
UGB1995w;experiment;2017-04-28-10-15-30;6,0;48,0;-100;2,0;3,0;1,0;0,0;column;1,0;False;False;False;1,38400006294;True;0,700000047684
UGB1995w;experiment;2017-04-28-10-15-30;7,0;1,0;-100;3,0;0,0;1,0;2,0;column;1,0;True;True;True;1,84699988365;True;1,06900000572
UGB1995w;experiment;2017-04-28-10-15-30;7,0;2,0;-100;2,0;3,0;0,0;1,0;column;1,0;True;False;True;1,08200001717;True;0,55999994278
UGB1995w;experiment;2017-04-28-10-15-30;7,0;3,0;-100;3,0;1,0;0,0;2,0;column;1,0;False;True;False;1,25;True;1,12600016594
UGB1995w;experiment;2017-04-28-10-15-30;7,0;4,0;-100;0,0;3,0;1,0;2,0;row;0,0;True;False;True;0,716999769211;True;0,563999891281
UGB1995w;experiment;2017-04-28-10-15-30;7,0;5,0;-100;1,0;0,0;3,0;2,0;row;1,0;True;False;True;1,61000013351;True;0,598999977112
UGB1995w;experiment;2017-04-28-10-15-30;7,0;6,0;-100;2,0;0,0;3,0;1,0;column;1,0;True;True;False;1,08300018311;False;0,665999889374
UGB1995w;experiment;2017-04-28-10-15-30;7,0;7,0;-100;0,0;1,0;3,0;2,0;row;0,0;True;True;True;0,916000127792;True;1,46599984169
UGB1995w;experiment;2017-04-28-10-15-30;7,0;8,0;-100;2,0;0,0;3,0;1,0;row;0,0;True;False;True;1,34999990463;True;0,729000091553
UGB1995w;experiment;2017-04-28-10-15-30;7,0;9,0;-100;1,0;0,0;2,0;3,0;column;1,0;True;True;True;0,917000055313;True;0,53200006485
UGB1995w;experiment;2017-04-28-10-15-30;7,0;10,0;-100;1,0;2,0;0,0;3,0;column;1,0;True;False;True;1,25;True;0,865000009537
UGB1995w;experiment;2017-04-28-10-15-30;7,0;11,0;-100;0,0;3,0;2,0;1,0;row;0,0;True;False;True;1,08400011063;True;1,43099999428
UGB1995w;experiment;2017-04-28-10-15-30;7,0;12,0;-100;0,0;2,0;3,0;1,0;column;1,0;False;False;False;1,54800009727;True;1,40099978447
UGB1995w;experiment;2017-04-28-10-15-30;7,0;13,0;-100;1,0;3,0;0,0;2,0;column;0,0;False;False;False;1,01600003242;True;0,809000015259
UGB1995w;experiment;2017-04-28-10-15-30;7,0;14,0;-100;1,0;3,0;0,0;2,0;row;1,0;True;False;True;1,75;True;1,32699990273
UGB1995w;experiment;2017-04-28-10-15-30;7,0;15,0;-100;1,0;3,0;0,0;2,0;column;0,0;True;False;True;0,684000015259;True;1,4319999218
UGB1995w;experiment;2017-04-28-10-15-30;7,0;16,0;-100;0,0;1,0;2,0;3,0;row;1,0;True;True;True;1,24800014496;True;0,930999994278
UGB1995w;experiment;2017-04-28-10-15-30;7,0;17,0;-100;3,0;2,0;0,0;1,0;column;1,0;False;False;False;1,58299994469;True;1,33899998665
UGB1995w;experiment;2017-04-28-10-15-30;7,0;18,0;-100;3,0;2,0;1,0;0,0;row;1,0;False;False;False;1,58400011063;True;0,700999975204
UGB1995w;experiment;2017-04-28-10-15-30;7,0;19,0;-100;1,0;2,0;3,0;0,0;row;1,0;True;False;True;1,15100002289;True;0,802999973297
UGB1995w;experiment;2017-04-28-10-15-30;7,0;20,0;-100;1,0;2,0;0,0;3,0;row;1,0;False;True;False;1,18600010872;True;0,531000137329
UGB1995w;experiment;2017-04-28-10-15-30;7,0;21,0;-100;0,0;3,0;2,0;1,0;column;0,0;False;False;False;1,44799995422;True;1,23399996758
UGB1995w;experiment;2017-04-28-10-15-30;7,0;22,0;-100;2,0;3,0;1,0;0,0;row;1,0;True;False;False;1,11500000954;False;1,19899988174
UGB1995w;experiment;2017-04-28-10-15-30;7,0;23,0;-100;2,0;3,0;0,0;1,0;column;1,0;False;True;False;1,28200006485;True;1,23200011253
UGB1995w;experiment;2017-04-28-10-15-30;7,0;24,0;-100;2,0;0,0;3,0;1,0;row;1,0;True;False;False;1,0490000248;False;0,901000022888
UGB1995w;experiment;2017-04-28-10-15-30;7,0;25,0;-100;1,0;2,0;0,0;3,0;row;0,0;False;True;False;2,64900016785;True;1,42899990082
UGB1995w;experiment;2017-04-28-10-15-30;7,0;26,0;-100;0,0;1,0;2,0;3,0;row;0,0;False;False;False;1,1179997921;True;0,896999835968
UGB1995w;experiment;2017-04-28-10-15-30;7,0;27,0;-100;2,0;1,0;0,0;3,0;column;1,0;False;False;False;1,14899992943;True;0,923999786377
UGB1995w;experiment;2017-04-28-10-15-30;7,0;28,0;-100;2,0;1,0;0,0;3,0;row;0,0;False;False;False;1,31599998474;True;0,798000097275
UGB1995w;experiment;2017-04-28-10-15-30;7,0;29,0;-100;1,0;2,0;3,0;0,0;column;1,0;False;True;False;1,11599993706;True;1,49300003052
UGB1995w;experiment;2017-04-28-10-15-30;7,0;30,0;-100;2,0;1,0;3,0;0,0;column;1,0;True;True;False;1,1819999218;False;0,723999977112
UGB1995w;experiment;2017-04-28-10-15-30;7,0;31,0;-100;0,0;2,0;1,0;3,0;row;0,0;True;False;True;1,22299981117;True;1,33599996567
UGB1995w;experiment;2017-04-28-10-15-30;7,0;32,0;-100;3,0;1,0;0,0;2,0;column;0,0;True;False;True;1,08299994469;True;0,669000148773
UGB1995w;experiment;2017-04-28-10-15-30;7,0;33,0;-100;1,0;0,0;3,0;2,0;column;0,0;False;False;False;1,61599993706;True;1,23300004005
UGB1995w;experiment;2017-04-28-10-15-30;7,0;34,0;-100;2,0;0,0;1,0;3,0;column;1,0;False;True;False;1,21700000763;True;0,667000055313
UGB1995w;experiment;2017-04-28-10-15-30;7,0;35,0;-100;0,0;2,0;1,0;3,0;column;1,0;False;True;False;1,15799999237;True;0,593999862671
UGB1995w;experiment;2017-04-28-10-15-30;7,0;36,0;-100;1,0;3,0;0,0;2,0;row;0,0;True;True;False;1,38400006294;False;0,65499997139
UGB1995w;experiment;2017-04-28-10-15-30;7,0;37,0;-100;1,0;2,0;0,0;3,0;column;0,0;False;True;False;2,1819999218;True;1,46499991417
UGB1995w;experiment;2017-04-28-10-15-30;7,0;38,0;-100;3,0;1,0;2,0;0,0;row;1,0;True;False;True;1,28200006485;True;0,834999799728
UGB1995w;experiment;2017-04-28-10-15-30;7,0;39,0;-100;3,0;2,0;0,0;1,0;column;0,0;False;True;False;1,48300004005;True;1,36899995804
UGB1995w;experiment;2017-04-28-10-15-30;7,0;40,0;-100;2,0;0,0;3,0;1,0;column;1,0;False;False;False;2,14899992943;True;1,28699994087
UGB1995w;experiment;2017-04-28-10-15-30;7,0;41,0;-100;1,0;0,0;2,0;3,0;row;1,0;True;True;True;0,947999954224;True;0,999000072479
UGB1995w;experiment;2017-04-28-10-15-30;7,0;42,0;-100;2,0;1,0;3,0;0,0;row;0,0;True;True;True;1,01699995995;True;1,12299990654
UGB1995w;experiment;2017-04-28-10-15-30;7,0;43,0;-100;0,0;3,0;1,0;2,0;column;1,0;False;False;False;1,28299999237;True;1,2009999752
UGB1995w;experiment;2017-04-28-10-15-30;7,0;44,0;-100;2,0;3,0;1,0;0,0;row;0,0;True;False;True;0,617000102997;True;1,23200011253
UGB1995w;experiment;2017-04-28-10-15-30;7,0;45,0;-100;1,0;0,0;3,0;2,0;row;1,0;False;True;False;1,01699995995;True;1,02999997139
UGB1995w;experiment;2017-04-28-10-15-30;7,0;46,0;-100;2,0;0,0;1,0;3,0;column;0,0;True;False;True;0,690999984741;True;0,832999944687
UGB1995w;experiment;2017-04-28-10-15-30;7,0;47,0;-100;0,0;1,0;3,0;2,0;row;0,0;False;True;False;1,08400011063;True;0,733000040054
UGB1995w;experiment;2017-04-28-10-15-30;7,0;48,0;-100;3,0;1,0;0,0;2,0;column;1,0;True;False;True;1,24899983406;True;1,46300005913
UGB1995w;experiment;2017-04-28-10-15-30;8,0;1,0;1000;1,0;0,0;3,0;2,0;row;0,0;True;True;False;1,08000016212;False;0,828999996185
UGB1995w;experiment;2017-04-28-10-15-30;8,0;2,0;1000;3,0;1,0;0,0;2,0;column;1,0;True;False;True;2,66600012779;True;1,36500000954
UGB1995w;experiment;2017-04-28-10-15-30;8,0;3,0;1000;0,0;3,0;1,0;2,0;row;1,0;False;False;False;1,76699995995;True;1,40300011635
UGB1995w;experiment;2017-04-28-10-15-30;8,0;4,0;1000;2,0;0,0;1,0;3,0;row;1,0;False;False;False;1,56599998474;True;1,46000003815
UGB1995w;experiment;2017-04-28-10-15-30;8,0;5,0;1000;1,0;2,0;0,0;3,0;row;0,0;True;False;True;0,964999914169;True;0,967000007629
UGB1995w;experiment;2017-04-28-10-15-30;8,0;6,0;1000;0,0;3,0;1,0;2,0;column;1,0;True;False;True;1,89899992943;True;0,791000127792
UGB1995w;experiment;2017-04-28-10-15-30;8,0;7,0;1000;3,0;0,0;2,0;1,0;row;1,0;False;True;False;1,10500001907;True;0,999000072479
UGB1995w;experiment;2017-04-28-10-15-30;8,0;8,0;1000;3,0;1,0;2,0;0,0;column;1,0;False;True;False;1,26699995995;True;0,53400015831
UGB1995w;experiment;2017-04-28-10-15-30;8,0;9,0;1000;3,0;2,0;1,0;0,0;row;1,0;False;False;False;1,23399996758;True;0,966000080109
UGB1995w;experiment;2017-04-28-10-15-30;8,0;10,0;1000;2,0;0,0;1,0;3,0;row;1,0;True;False;True;2,36599993706;True;0,732000112534
UGB1995w;experiment;2017-04-28-10-15-30;8,0;11,0;1000;3,0;1,0;0,0;2,0;column;0,0;False;True;False;1,06700015068;True;0,598999977112
UGB1995w;experiment;2017-04-28-10-15-30;8,0;12,0;1000;2,0;3,0;0,0;1,0;row;1,0;True;False;True;1,20000004768;True;1,36400008202
UGB1995w;experiment;2017-04-28-10-15-30;8,0;13,0;1000;3,0;2,0;1,0;0,0;column;0,0;True;True;True;1,30099987984;True;0,691999912262
UGB1995w;experiment;2017-04-28-10-15-30;8,0;14,0;1000;0,0;1,0;3,0;2,0;column;0,0;False;True;False;0,799999952316;True;0,931999921799
UGB1995w;experiment;2017-04-28-10-15-30;8,0;15,0;1000;3,0;0,0;2,0;1,0;column;0,0;False;True;False;1,16600012779;True;0,535000085831
UGB1995w;experiment;2017-04-28-10-15-30;8,0;16,0;1000;1,0;0,0;2,0;3,0;column;0,0;True;False;False;0,933000087738;False;1,28999996185
UGB1995w;experiment;2017-04-28-10-15-30;8,0;17,0;1000;0,0;2,0;3,0;1,0;row;1,0;False;True;False;2,13400006294;True;1,36899995804
UGB1995w;experiment;2017-04-28-10-15-30;8,0;18,0;1000;1,0;3,0;2,0;0,0;column;0,0;True;False;False;1,23399996758;False;0,612999916077
UGB1995w;experiment;2017-04-28-10-15-30;8,0;19,0;1000;0,0;1,0;3,0;2,0;row;1,0;True;False;True;2,09800004959;True;1,29299998283
UGB1995w;experiment;2017-04-28-10-15-30;8,0;20,0;1000;1,0;3,0;0,0;2,0;row;1,0;False;False;False;0,936000108719;True;1,36599993706
UGB1995w;experiment;2017-04-28-10-15-30;8,0;21,0;1000;3,0;2,0;0,0;1,0;row;0,0;False;False;False;1,73299980164;True;1,2990000248
UGB1995w;experiment;2017-04-28-10-15-30;8,0;22,0;1000;1,0;0,0;3,0;2,0;column;1,0;False;True;True;3,43300008774;False;0,526000022888
UGB1995w;experiment;2017-04-28-10-15-30;8,0;23,0;1000;3,0;2,0;1,0;0,0;row;1,0;True;True;False;1,13400006294;False;0,65700006485
UGB1995w;experiment;2017-04-28-10-15-30;8,0;24,0;1000;1,0;2,0;0,0;3,0;column;1,0;False;True;False;1,16600012779;True;0,658999919891
UGB1995w;experiment;2017-04-28-10-15-30;8,0;25,0;1000;2,0;3,0;1,0;0,0;row;0,0;True;False;True;1,49799990654;True;1,19799995422
UGB1995w;experiment;2017-04-28-10-15-30;8,0;26,0;1000;2,0;3,0;1,0;0,0;row;1,0;True;True;False;1,26700019836;False;0,736999988556
UGB1995w;experiment;2017-04-28-10-15-30;8,0;27,0;1000;3,0;0,0;1,0;2,0;column;1,0;True;False;True;2,09999990463;True;1,45700001717
UGB1995w;experiment;2017-04-28-10-15-30;8,0;28,0;1000;1,0;3,0;2,0;0,0;column;1,0;False;True;False;2,53299999237;True;1,23399996758
UGB1995w;experiment;2017-04-28-10-15-30;8,0;29,0;1000;1,0;3,0;2,0;0,0;row;1,0;True;False;True;1,40100002289;True;1,43099999428
UGB1995w;experiment;2017-04-28-10-15-30;8,0;30,0;1000;0,0;3,0;1,0;2,0;column;0,0;False;False;False;1,33300018311;True;1,0649998188
UGB1995w;experiment;2017-04-28-10-15-30;8,0;31,0;1000;0,0;3,0;1,0;2,0;row;0,0;False;True;False;1,0;True;1,19000005722
UGB1995w;experiment;2017-04-28-10-15-30;8,0;32,0;1000;2,0;0,0;1,0;3,0;column;1,0;True;True;True;0,93799996376;True;0,631999969482
UGB1995w;experiment;2017-04-28-10-15-30;8,0;33,0;1000;0,0;3,0;2,0;1,0;row;0,0;True;False;False;1,66699981689;False;1,22300004959
UGB1995w;experiment;2017-04-28-10-15-30;8,0;34,0;1000;3,0;2,0;0,0;1,0;column;0,0;False;True;False;1,36599993706;True;0,725000143051
UGB1995w;experiment;2017-04-28-10-15-30;8,0;35,0;1000;3,0;2,0;1,0;0,0;row;0,0;False;False;False;1,93300008774;True;0,932999849319
UGB1995w;experiment;2017-04-28-10-15-30;8,0;36,0;1000;1,0;2,0;3,0;0,0;column;1,0;True;True;True;1,93400001526;True;1,42300009727
UGB1995w;experiment;2017-04-28-10-15-30;8,0;37,0;1000;1,0;2,0;3,0;0,0;column;0,0;False;False;False;3,76600003242;True;1,22399997711
UGB1995w;experiment;2017-04-28-10-15-30;8,0;38,0;1000;1,0;2,0;3,0;0,0;row;1,0;False;True;False;1,53299999237;True;0,864000082016
UGB1995w;experiment;2017-04-28-10-15-30;8,0;39,0;1000;0,0;3,0;1,0;2,0;column;1,0;False;False;False;1,20000004768;True;0,832999944687
UGB1995w;experiment;2017-04-28-10-15-30;8,0;40,0;1000;2,0;0,0;3,0;1,0;column;1,0;True;True;False;0,866999864578;False;1,15799999237
UGB1995w;experiment;2017-04-28-10-15-30;8,0;41,0;1000;2,0;3,0;0,0;1,0;row;0,0;True;False;False;1,40000009537;False;0,696000099182
UGB1995w;experiment;2017-04-28-10-15-30;8,0;42,0;1000;3,0;1,0;0,0;2,0;row;1,0;True;False;False;1,40000009537;False;1,4319999218
UGB1995w;experiment;2017-04-28-10-15-30;8,0;43,0;1000;3,0;2,0;0,0;1,0;column;0,0;True;True;False;2,89900016785;False;1,19000005722
UGB1995w;experiment;2017-04-28-10-15-30;8,0;44,0;1000;2,0;1,0;3,0;0,0;row;1,0;False;False;False;4,76600003242;True;1,36599993706
UGB1995w;experiment;2017-04-28-10-15-30;8,0;45,0;1000;0,0;2,0;1,0;3,0;column;0,0;True;False;True;1,13300013542;True;1,13800001144
UGB1995w;experiment;2017-04-28-10-15-30;8,0;46,0;1000;3,0;2,0;1,0;0,0;column;0,0;False;True;True;3,4390001297;False;0,806999921799
UGB1995w;experiment;2017-04-28-10-15-30;8,0;47,0;1000;2,0;3,0;1,0;0,0;column;0,0;True;True;False;2,90000009537;False;0,631000041962
UGB1995w;experiment;2017-04-28-10-15-30;8,0;48,0;1000;3,0;1,0;0,0;2,0;row;1,0;False;True;False;2,26600003242;True;1,23600006104
UGB1995w;experiment;2017-04-28-10-15-30;9,0;1,0;100;2,0;1,0;3,0;0,0;column;1,0;False;False;False;2,33299994469;True;0,934000015259
UGB1995w;experiment;2017-04-28-10-15-30;9,0;2,0;100;2,0;0,0;1,0;3,0;row;1,0;True;False;True;1,16600012779;True;1,0680000782
UGB1995w;experiment;2017-04-28-10-15-30;9,0;3,0;100;2,0;3,0;0,0;1,0;column;1,0;True;False;True;0,932999849319;True;1,03399991989
UGB1995w;experiment;2017-04-28-10-15-30;9,0;4,0;100;2,0;3,0;1,0;0,0;column;0,0;True;False;True;0,96599984169;True;1,30100011826
UGB1995w;experiment;2017-04-28-10-15-30;9,0;5,0;100;0,0;1,0;2,0;3,0;column;0,0;True;True;True;0,899999856949;True;0,998999834061
UGB1995w;experiment;2017-04-28-10-15-30;9,0;6,0;100;0,0;2,0;1,0;3,0;column;0,0;True;False;True;1,07400012016;True;0,871000051498
UGB1995w;experiment;2017-04-28-10-15-30;9,0;7,0;100;3,0;2,0;0,0;1,0;row;1,0;True;False;False;1,06700015068;False;0,799999952316
UGB1995w;experiment;2017-04-28-10-15-30;9,0;8,0;100;1,0;2,0;3,0;0,0;column;0,0;True;True;True;1,33299994469;True;0,800000190735
UGB1995w;experiment;2017-04-28-10-15-30;9,0;9,0;100;3,0;0,0;2,0;1,0;column;0,0;True;False;True;1,46700000763;True;0,667999982834
UGB1995w;experiment;2017-04-28-10-15-30;9,0;10,0;100;2,0;3,0;0,0;1,0;row;1,0;False;False;False;1,59800004959;True;1,03500008583
UGB1995w;experiment;2017-04-28-10-15-30;9,0;11,0;100;1,0;0,0;3,0;2,0;row;1,0;False;True;False;1,20000004768;True;0,970999956131
UGB1995w;experiment;2017-04-28-10-15-30;9,0;12,0;100;3,0;2,0;1,0;0,0;row;1,0;False;False;False;1,16700005531;True;0,791999816895
UGB1995w;experiment;2017-04-28-10-15-30;9,0;13,0;100;3,0;1,0;0,0;2,0;row;0,0;False;True;False;0,900000095367;True;0,764999866486
UGB1995w;experiment;2017-04-28-10-15-30;9,0;14,0;100;1,0;3,0;0,0;2,0;row;1,0;True;True;False;0,900000095367;False;0,632999897003
UGB1995w;experiment;2017-04-28-10-15-30;9,0;15,0;100;3,0;2,0;1,0;0,0;column;0,0;False;False;False;1,10000014305;True;1,0
UGB1995w;experiment;2017-04-28-10-15-30;9,0;16,0;100;1,0;3,0;2,0;0,0;row;0,0;True;False;True;0,632999897003;True;0,532999992371
UGB1995w;experiment;2017-04-28-10-15-30;9,0;17,0;100;2,0;1,0;0,0;3,0;row;1,0;True;False;True;1,632999897;True;0,561000108719
UGB1995w;experiment;2017-04-28-10-15-30;9,0;18,0;100;2,0;3,0;1,0;0,0;row;1,0;False;False;False;1,13899993896;True;1,06799983978
UGB1995w;experiment;2017-04-28-10-15-30;9,0;19,0;100;3,0;2,0;0,0;1,0;row;1,0;False;True;False;1,26800012589;True;0,740000009537
UGB1995w;experiment;2017-04-28-10-15-30;9,0;20,0;100;3,0;0,0;2,0;1,0;row;0,0;True;False;True;0,600000143051;True;1,46700000763
UGB1995w;experiment;2017-04-28-10-15-30;9,0;21,0;100;2,0;0,0;1,0;3,0;column;1,0;True;True;False;1,06599998474;False;0,53200006485
UGB1995w;experiment;2017-04-28-10-15-30;9,0;22,0;100;1,0;3,0;0,0;2,0;row;0,0;False;True;False;1,03299999237;True;1,06599998474
UGB1995w;experiment;2017-04-28-10-15-30;9,0;23,0;100;2,0;0,0;3,0;1,0;row;1,0;False;False;False;2,53299999237;True;1,16499996185
UGB1995w;experiment;2017-04-28-10-15-30;9,0;24,0;100;2,0;3,0;0,0;1,0;column;0,0;False;False;False;1,0;True;1,26600003242
UGB1995w;experiment;2017-04-28-10-15-30;9,0;25,0;100;0,0;1,0;2,0;3,0;row;1,0;True;True;False;1,03199982643;False;0,867000102997
UGB1995w;experiment;2017-04-28-10-15-30;9,0;26,0;100;1,0;2,0;3,0;0,0;column;1,0;False;False;False;0,865000009537;True;1,40300011635
UGB1995w;experiment;2017-04-28-10-15-30;9,0;27,0;100;2,0;3,0;0,0;1,0;row;0,0;True;True;True;1,26699995995;True;1,3140001297
UGB1995w;experiment;2017-04-28-10-15-30;9,0;28,0;100;0,0;2,0;3,0;1,0;column;1,0;False;False;False;1,09999990463;True;1,13800001144
UGB1995w;experiment;2017-04-28-10-15-30;9,0;29,0;100;3,0;1,0;2,0;0,0;row;1,0;True;False;False;1,16499996185;False;1,13199996948
UGB1995w;experiment;2017-04-28-10-15-30;9,0;30,0;100;1,0;2,0;0,0;3,0;column;0,0;False;False;False;0,932999849319;True;0,834000110626
UGB1995w;experiment;2017-04-28-10-15-30;9,0;31,0;100;3,0;2,0;1,0;0,0;row;1,0;True;True;False;1,76699995995;False;1,12400007248
UGB1995w;experiment;2017-04-28-10-15-30;9,0;32,0;100;1,0;2,0;0,0;3,0;row;1,0;True;True;True;1,13199996948;True;1,35700011253
UGB1995w;experiment;2017-04-28-10-15-30;9,0;33,0;100;1,0;3,0;0,0;2,0;column;0,0;False;False;False;1,73300004005;True;1,49199986458
UGB1995w;experiment;2017-04-28-10-15-30;9,0;34,0;100;0,0;3,0;2,0;1,0;row;0,0;True;True;True;1,06699991226;True;1,50300002098
UGB1995w;experiment;2017-04-28-10-15-30;9,0;35,0;100;1,0;0,0;2,0;3,0;row;0,0;False;True;False;1,56799983978;True;1,46700000763
UGB1995w;experiment;2017-04-28-10-15-30;9,0;36,0;100;2,0;0,0;1,0;3,0;row;0,0;False;False;False;1,26700019836;True;0,699000120163
UGB1995w;experiment;2017-04-28-10-15-30;9,0;37,0;100;3,0;1,0;0,0;2,0;column;1,0;False;True;False;1,16599988937;True;0,558000087738
UGB1995w;experiment;2017-04-28-10-15-30;9,0;38,0;100;1,0;3,0;0,0;2,0;row;1,0;False;False;False;1,06599998474;True;1,33100008965
UGB1995w;experiment;2017-04-28-10-15-30;9,0;39,0;100;3,0;0,0;1,0;2,0;row;0,0;False;True;False;1,13300013542;True;1,10199999809
UGB1995w;experiment;2017-04-28-10-15-30;9,0;40,0;100;0,0;2,0;3,0;1,0;row;0,0;True;False;False;1,132999897;False;0,924000024796
UGB1995w;experiment;2017-04-28-10-15-30;9,0;41,0;100;2,0;1,0;0,0;3,0;row;0,0;True;False;True;0,733000040054;True;1,12599992752
UGB1995w;experiment;2017-04-28-10-15-30;9,0;42,0;100;1,0;2,0;0,0;3,0;column;1,0;False;True;True;0,967000007629;False;0,768999814987
UGB1995w;experiment;2017-04-28-10-15-30;9,0;43,0;100;1,0;0,0;3,0;2,0;row;0,0;True;True;False;1,23399996758;False;0,567000150681
UGB1995w;experiment;2017-04-28-10-15-30;9,0;44,0;100;0,0;1,0;3,0;2,0;column;1,0;True;True;True;1,66600012779;True;1,16600012779
UGB1995w;experiment;2017-04-28-10-15-30;9,0;45,0;100;3,0;0,0;2,0;1,0;row;1,0;False;True;False;1,29999995232;True;0,832000017166
UGB1995w;experiment;2017-04-28-10-15-30;9,0;46,0;100;0,0;2,0;1,0;3,0;column;0,0;False;True;False;1,46700000763;True;1,42499995232
UGB1995w;experiment;2017-04-28-10-15-30;9,0;47,0;100;2,0;0,0;3,0;1,0;column;1,0;False;False;False;1,46599984169;True;0,832999944687
UGB1995w;experiment;2017-04-28-10-15-30;9,0;48,0;100;3,0;1,0;2,0;0,0;column;1,0;True;True;False;1,40000009537;False;0,899999856949
UGB1995w;experiment;2017-04-28-10-15-30;10,0;1,0;-100;2,0;1,0;3,0;0,0;row;1,0;False;True;True;1,21700000763;False;1,30900001526
UGB1995w;experiment;2017-04-28-10-15-30;10,0;2,0;-100;3,0;0,0;2,0;1,0;column;0,0;False;True;False;1,48199987411;True;0,802999973297
UGB1995w;experiment;2017-04-28-10-15-30;10,0;3,0;-100;1,0;3,0;0,0;2,0;row;0,0;False;True;False;1,08200001717;True;0,891999959946
UGB1995w;experiment;2017-04-28-10-15-30;10,0;4,0;-100;0,0;2,0;1,0;3,0;row;1,0;False;True;False;1,18000006676;True;1,40300011635
UGB1995w;experiment;2017-04-28-10-15-30;10,0;5,0;-100;0,0;1,0;3,0;2,0;column;0,0;True;False;True;0,681999921799;True;1,30100011826
UGB1995w;experiment;2017-04-28-10-15-30;10,0;6,0;-100;0,0;3,0;1,0;2,0;row;0,0;False;False;False;1,08500003815;True;1,29899978638
UGB1995w;experiment;2017-04-28-10-15-30;10,0;7,0;-100;0,0;1,0;2,0;3,0;row;1,0;False;False;False;1,1819999218;True;0,730999946594
UGB1995w;experiment;2017-04-28-10-15-30;10,0;8,0;-100;3,0;1,0;2,0;0,0;row;0,0;False;True;False;1,18299984932;True;1,29100012779
UGB1995w;experiment;2017-04-28-10-15-30;10,0;9,0;-100;3,0;1,0;2,0;0,0;row;0,0;True;False;True;0,950000047684;True;0,740999937057
UGB1995w;experiment;2017-04-28-10-15-30;10,0;10,0;-100;3,0;2,0;0,0;1,0;row;1,0;True;True;True;0,684000015259;True;1,46800017357
UGB1995w;experiment;2017-04-28-10-15-30;10,0;11,0;-100;1,0;0,0;3,0;2,0;column;0,0;True;True;True;1,25;True;0,732000112534
UGB1995w;experiment;2017-04-28-10-15-30;10,0;12,0;-100;3,0;2,0;0,0;1,0;column;1,0;True;False;True;0,949000120163;True;0,933000087738
UGB1995w;experiment;2017-04-28-10-15-30;10,0;13,0;-100;3,0;2,0;1,0;0,0;column;1,0;False;False;False;1,21799993515;True;0,947999954224
UGB1995w;experiment;2017-04-28-10-15-30;10,0;14,0;-100;1,0;2,0;0,0;3,0;column;1,0;False;False;False;1,11599993706;True;1,2009999752
UGB1995w;experiment;2017-04-28-10-15-30;10,0;15,0;-100;3,0;1,0;2,0;0,0;column;0,0;True;False;True;1,25;True;1,29799985886
UGB1995w;experiment;2017-04-28-10-15-30;10,0;16,0;-100;1,0;0,0;2,0;3,0;column;0,0;True;False;True;1,01599979401;True;1,50299978256
UGB1995w;experiment;2017-04-28-10-15-30;10,0;17,0;-100;2,0;0,0;1,0;3,0;row;0,0;False;False;False;1,08299994469;True;0,995000123978
UGB1995w;experiment;2017-04-28-10-15-30;10,0;18,0;-100;0,0;3,0;2,0;1,0;column;0,0;True;True;True;0,84900021553;True;1,03500008583
UGB1995w;experiment;2017-04-28-10-15-30;10,0;19,0;-100;3,0;0,0;2,0;1,0;column;0,0;True;True;True;0,548999786377;True;0,692000150681
UGB1995w;experiment;2017-04-28-10-15-30;10,0;20,0;-100;0,0;1,0;3,0;2,0;row;1,0;True;True;True;0,948999881744;True;1,10099983215
UGB1995w;experiment;2017-04-28-10-15-30;10,0;21,0;-100;2,0;1,0;3,0;0,0;row;0,0;False;False;False;1,04999995232;True;1,09700012207
UGB1995w;experiment;2017-04-28-10-15-30;10,0;22,0;-100;2,0;0,0;3,0;1,0;row;0,0;False;True;False;1,54999995232;True;0,536000013351
UGB1995w;experiment;2017-04-28-10-15-30;10,0;23,0;-100;1,0;2,0;0,0;3,0;row;0,0;True;False;True;0,649000167847;True;0,96599984169
UGB1995w;experiment;2017-04-28-10-15-30;10,0;24,0;-100;2,0;1,0;0,0;3,0;row;1,0;False;True;False;1,05100011826;True;1,26700019836
UGB1995w;experiment;2017-04-28-10-15-30;10,0;25,0;-100;1,0;3,0;2,0;0,0;row;0,0;True;False;True;0,648000001907;True;0,798000097275
UGB1995w;experiment;2017-04-28-10-15-30;10,0;26,0;-100;3,0;0,0;2,0;1,0;row;0,0;True;False;True;1,28199982643;True;1,03799986839
UGB1995w;experiment;2017-04-28-10-15-30;10,0;27,0;-100;2,0;0,0;1,0;3,0;row;1,0;False;False;False;0,883000135422;True;1,16899991035
UGB1995w;experiment;2017-04-28-10-15-30;10,0;28,0;-100;3,0;1,0;0,0;2,0;column;0,0;False;True;False;1,18099999428;True;1,08800005913
UGB1995w;experiment;2017-04-28-10-15-30;10,0;29,0;-100;3,0;0,0;2,0;1,0;column;1,0;True;False;False;1,117000103;False;0,657999992371
UGB1995w;experiment;2017-04-28-10-15-30;10,0;30,0;-100;2,0;1,0;0,0;3,0;column;0,0;True;False;True;0,916000127792;True;0,942000150681
UGB1995w;experiment;2017-04-28-10-15-30;10,0;31,0;-100;2,0;3,0;1,0;0,0;row;0,0;False;False;False;0,950999975204;True;0,660000085831
UGB1995w;experiment;2017-04-28-10-15-30;10,0;32,0;-100;2,0;3,0;1,0;0,0;column;0,0;True;False;True;0,482999801636;True;0,533999919891
UGB1995w;experiment;2017-04-28-10-15-30;10,0;33,0;-100;3,0;1,0;0,0;2,0;row;0,0;True;False;True;0,848999977112;True;1,02499985695
UGB1995w;experiment;2017-04-28-10-15-30;10,0;34,0;-100;1,0;0,0;3,0;2,0;column;1,0;False;True;False;0,817000150681;True;0,834000110626
UGB1995w;experiment;2017-04-28-10-15-30;10,0;35,0;-100;1,0;2,0;3,0;0,0;row;0,0;True;True;False;1,15100002289;False;1,49900007248
UGB1995w;experiment;2017-04-28-10-15-30;10,0;36,0;-100;1,0;3,0;2,0;0,0;column;1,0;False;False;False;2,11699986458;True;1,30100011826
UGB1995w;experiment;2017-04-28-10-15-30;10,0;37,0;-100;1,0;0,0;2,0;3,0;row;0,0;True;True;False;1,117000103;False;1,19000005722
UGB1995w;experiment;2017-04-28-10-15-30;10,0;38,0;-100;2,0;1,0;3,0;0,0;column;0,0;True;True;True;1,01700019836;True;1,51900005341
UGB1995w;experiment;2017-04-28-10-15-30;10,0;39,0;-100;2,0;0,0;1,0;3,0;row;1,0;True;False;True;1,15000009537;True;1,46499991417
UGB1995w;experiment;2017-04-28-10-15-30;10,0;40,0;-100;2,0;1,0;3,0;0,0;row;1,0;True;True;True;1,08300018311;True;1,39899992943
UGB1995w;experiment;2017-04-28-10-15-30;10,0;41,0;-100;0,0;3,0;2,0;1,0;row;1,0;False;False;False;1,28299999237;True;0,53400015831
UGB1995w;experiment;2017-04-28-10-15-30;10,0;42,0;-100;3,0;1,0;0,0;2,0;row;1,0;True;False;False;1,25;False;1,23399996758
UGB1995w;experiment;2017-04-28-10-15-30;10,0;43,0;-100;2,0;0,0;3,0;1,0;column;0,0;True;False;True;0,615000009537;True;1,20000004768
UGB1995w;experiment;2017-04-28-10-15-30;10,0;44,0;-100;0,0;2,0;1,0;3,0;column;0,0;True;False;True;0,617000102997;True;0,766999959946
UGB1995w;experiment;2017-04-28-10-15-30;10,0;45,0;-100;3,0;1,0;2,0;0,0;row;1,0;False;False;False;1,54999995232;True;0,924999952316
UGB1995w;experiment;2017-04-28-10-15-30;10,0;46,0;-100;0,0;1,0;2,0;3,0;column;0,0;False;True;False;1,04999995232;True;1,5
UGB1995w;experiment;2017-04-28-10-15-30;10,0;47,0;-100;0,0;3,0;1,0;2,0;row;1,0;False;False;False;1,24800014496;True;1,19099998474
UGB1995w;experiment;2017-04-28-10-15-30;10,0;48,0;-100;1,0;3,0;2,0;0,0;row;1,0;True;True;True;1,08300018311;True;0,935000181198
UGB1995w;experiment;2017-04-28-10-15-30;11,0;1,0;100;3,0;1,0;0,0;2,0;column;0,0;False;True;False;1,16600012779;True;1,23199987411
UGB1995w;experiment;2017-04-28-10-15-30;11,0;2,0;100;3,0;2,0;0,0;1,0;column;0,0;False;False;False;1,03399991989;True;1,46600008011
UGB1995w;experiment;2017-04-28-10-15-30;11,0;3,0;100;1,0;3,0;0,0;2,0;row;0,0;True;True;False;0,930999994278;False;1,49900007248
UGB1995w;experiment;2017-04-28-10-15-30;11,0;4,0;100;0,0;2,0;3,0;1,0;column;1,0;True;False;True;1,2650001049;True;0,871999979019
UGB1995w;experiment;2017-04-28-10-15-30;11,0;5,0;100;0,0;3,0;2,0;1,0;row;0,0;False;True;False;1,23200011253;True;0,564999818802
UGB1995w;experiment;2017-04-28-10-15-30;11,0;6,0;100;1,0;3,0;2,0;0,0;row;1,0;True;True;True;0,967000007629;True;1,49800014496
UGB1995w;experiment;2017-04-28-10-15-30;11,0;7,0;100;0,0;3,0;2,0;1,0;column;1,0;False;True;False;0,971999883652;True;1,42600011826
UGB1995w;experiment;2017-04-28-10-15-30;11,0;8,0;100;0,0;2,0;3,0;1,0;row;1,0;True;False;False;0,967000007629;False;1,4960000515
UGB1995w;experiment;2017-04-28-10-15-30;11,0;9,0;100;2,0;0,0;3,0;1,0;row;0,0;True;True;True;0,700000047684;True;1,09800004959
UGB1995w;experiment;2017-04-28-10-15-30;11,0;10,0;100;1,0;2,0;3,0;0,0;row;1,0;True;False;True;0,467000007629;True;1,46799993515
UGB1995w;experiment;2017-04-28-10-15-30;11,0;11,0;100;1,0;2,0;0,0;3,0;row;0,0;False;False;False;0,934000015259;True;1,29700016975
UGB1995w;experiment;2017-04-28-10-15-30;11,0;12,0;100;2,0;1,0;0,0;3,0;row;1,0;False;False;False;1,19900012016;True;1,33399987221
UGB1995w;experiment;2017-04-28-10-15-30;11,0;13,0;100;1,0;3,0;2,0;0,0;row;1,0;False;True;False;0,800000190735;True;1,4319999218
UGB1995w;experiment;2017-04-28-10-15-30;11,0;14,0;100;0,0;2,0;1,0;3,0;column;1,0;False;True;False;0,966000080109;True;0,594000101089
UGB1995w;experiment;2017-04-28-10-15-30;11,0;15,0;100;0,0;1,0;3,0;2,0;column;0,0;True;True;False;1,36400008202;False;1,33299994469
UGB1995w;experiment;2017-04-28-10-15-30;11,0;16,0;100;1,0;0,0;2,0;3,0;row;1,0;True;True;False;1,96600008011;False;0,899000167847
UGB1995w;experiment;2017-04-28-10-15-30;11,0;17,0;100;3,0;0,0;2,0;1,0;column;0,0;False;False;False;1,16599988937;True;1,3220000267
UGB1995w;experiment;2017-04-28-10-15-30;11,0;18,0;100;1,0;0,0;2,0;3,0;column;0,0;False;False;False;1,29999995232;True;0,863999843597
UGB1995w;experiment;2017-04-28-10-15-30;11,0;19,0;100;3,0;1,0;2,0;0,0;column;0,0;True;True;True;1,66899991035;True;1,49099993706
UGB1995w;experiment;2017-04-28-10-15-30;11,0;20,0;100;1,0;3,0;0,0;2,0;column;1,0;False;False;False;1,06599998474;True;0,666000127792
UGB1995w;experiment;2017-04-28-10-15-30;11,0;21,0;100;1,0;0,0;3,0;2,0;row;1,0;True;False;True;1,63300013542;True;0,931999921799
UGB1995w;experiment;2017-04-28-10-15-30;11,0;22,0;100;2,0;0,0;1,0;3,0;row;0,0;True;True;True;0,699999809265;True;0,599999904633
UGB1995w;experiment;2017-04-28-10-15-30;11,0;23,0;100;3,0;0,0;1,0;2,0;column;0,0;True;True;False;1,20000004768;False;0,890999794006
UGB1995w;experiment;2017-04-28-10-15-30;11,0;24,0;100;1,0;2,0;3,0;0,0;column;0,0;False;True;False;2,10000014305;True;0,59299993515
UGB1995w;experiment;2017-04-28-10-15-30;11,0;25,0;100;3,0;0,0;1,0;2,0;column;1,0;False;True;False;1,06700015068;True;0,792999982834
UGB1995w;experiment;2017-04-28-10-15-30;11,0;26,0;100;2,0;1,0;0,0;3,0;column;1,0;True;False;False;1,132999897;False;0,966000080109
UGB1995w;experiment;2017-04-28-10-15-30;11,0;27,0;100;0,0;1,0;2,0;3,0;column;0,0;False;True;False;1,17500019073;True;0,802000045776
UGB1995w;experiment;2017-04-28-10-15-30;11,0;28,0;100;3,0;2,0;1,0;0,0;column;1,0;False;True;False;1,19899988174;True;1,47199988365
UGB1995w;experiment;2017-04-28-10-15-30;11,0;29,0;100;0,0;3,0;1,0;2,0;row;1,0;False;False;False;0,966000080109;True;1,46800017357
UGB1995w;experiment;2017-04-28-10-15-30;11,0;30,0;100;2,0;3,0;0,0;1,0;row;0,0;False;False;False;1,29999995232;True;0,802999973297
UGB1995w;experiment;2017-04-28-10-15-30;11,0;31,0;100;2,0;1,0;3,0;0,0;row;0,0;True;False;True;0,5;True;1,43600010872
UGB1995w;experiment;2017-04-28-10-15-30;11,0;32,0;100;2,0;3,0;0,0;1,0;row;1,0;True;True;True;0,598000049591;True;0,765999794006
UGB1995w;experiment;2017-04-28-10-15-30;11,0;33,0;100;3,0;2,0;1,0;0,0;column;0,0;True;True;False;0,900000095367;False;1,02699995041
UGB1995w;experiment;2017-04-28-10-15-30;11,0;34,0;100;0,0;3,0;2,0;1,0;row;1,0;True;False;False;1,80000019073;False;1,46900010109
UGB1995w;experiment;2017-04-28-10-15-30;11,0;35,0;100;0,0;3,0;2,0;1,0;row;1,0;False;True;False;1,29999995232;True;1,16599988937
UGB1995w;experiment;2017-04-28-10-15-30;11,0;36,0;100;3,0;2,0;1,0;0,0;column;1,0;True;True;True;1,2990000248;True;1,32399988174
UGB1995w;experiment;2017-04-28-10-15-30;11,0;37,0;100;0,0;1,0;3,0;2,0;row;1,0;True;True;False;1,36599993706;False;1,46600008011
UGB1995w;experiment;2017-04-28-10-15-30;11,0;38,0;100;3,0;0,0;1,0;2,0;row;0,0;True;True;True;1,43300008774;True;1,09499979019
UGB1995w;experiment;2017-04-28-10-15-30;11,0;39,0;100;3,0;2,0;0,0;1,0;row;0,0;True;False;True;1,0;True;0,662999868393
UGB1995w;experiment;2017-04-28-10-15-30;11,0;40,0;100;3,0;2,0;1,0;0,0;row;0,0;False;False;False;1,16700005531;True;0,841000080109
UGB1995w;experiment;2017-04-28-10-15-30;11,0;41,0;100;3,0;0,0;2,0;1,0;row;1,0;True;False;False;0,733999967575;False;1,13199996948
UGB1995w;experiment;2017-04-28-10-15-30;11,0;42,0;100;2,0;0,0;3,0;1,0;column;1,0;True;False;False;0,96599984169;False;0,670000076294
UGB1995w;experiment;2017-04-28-10-15-30;11,0;43,0;100;1,0;0,0;3,0;2,0;column;0,0;True;True;True;1,96700000763;True;1,46499991417
UGB1995w;experiment;2017-04-28-10-15-30;11,0;44,0;100;0,0;3,0;2,0;1,0;column;1,0;True;False;True;1,46700000763;True;1,43000006676
UGB1995w;experiment;2017-04-28-10-15-30;11,0;45,0;100;3,0;2,0;0,0;1,0;column;1,0;True;True;True;1,59899997711;True;1,29200005531
UGB1995w;experiment;2017-04-28-10-15-30;11,0;46,0;100;0,0;1,0;3,0;2,0;column;1,0;False;False;False;1,39899992943;True;0,898000001907
UGB1995w;experiment;2017-04-28-10-15-30;11,0;47,0;100;1,0;0,0;2,0;3,0;row;0,0;True;True;True;0,999000072479;True;0,763000011444
UGB1995w;experiment;2017-04-28-10-15-30;11,0;48,0;100;1,0;2,0;0,0;3,0;column;0,0;True;True;False;0,931999921799;False;1,42699980736
UGB1995w;experiment;2017-04-28-10-15-30;12,0;1,0;1000;1,0;2,0;3,0;0,0;column;0,0;True;False;True;0,700000047684;True;1,30399990082
UGB1995w;experiment;2017-04-28-10-15-30;12,0;2,0;1000;1,0;2,0;3,0;0,0;row;0,0;False;True;False;0,933000087738;True;0,725999832153
UGB1995w;experiment;2017-04-28-10-15-30;12,0;3,0;1000;0,0;1,0;2,0;3,0;row;0,0;True;False;False;1,0;False;0,99799990654
UGB1995w;experiment;2017-04-28-10-15-30;12,0;4,0;1000;2,0;3,0;0,0;1,0;column;0,0;True;False;True;0,731999874115;True;0,62700009346
UGB1995w;experiment;2017-04-28-10-15-30;12,0;5,0;1000;0,0;3,0;1,0;2,0;row;0,0;True;True;False;1,26600003242;False;1,4960000515
UGB1995w;experiment;2017-04-28-10-15-30;12,0;6,0;1000;2,0;1,0;0,0;3,0;column;1,0;True;False;False;1,76600003242;False;1,10000014305
UGB1995w;experiment;2017-04-28-10-15-30;12,0;7,0;1000;3,0;2,0;0,0;1,0;column;1,0;True;True;False;1,06699991226;False;0,989000082016
UGB1995w;experiment;2017-04-28-10-15-30;12,0;8,0;1000;2,0;3,0;1,0;0,0;row;0,0;False;False;False;1,13400006294;True;1,09000015259
UGB1995w;experiment;2017-04-28-10-15-30;12,0;9,0;1000;0,0;2,0;3,0;1,0;column;0,0;False;False;False;1,06599998474;True;1,50100016594
UGB1995w;experiment;2017-04-28-10-15-30;12,0;10,0;1000;0,0;3,0;2,0;1,0;column;0,0;False;False;False;0,899999856949;True;0,529000043869
UGB1995w;experiment;2017-04-28-10-15-30;12,0;11,0;1000;3,0;0,0;2,0;1,0;column;1,0;True;False;True;0,733999967575;True;0,963000059128
UGB1995w;experiment;2017-04-28-10-15-30;12,0;12,0;1000;2,0;0,0;3,0;1,0;column;1,0;False;False;False;1,7990000248;True;0,898000001907
UGB1995w;experiment;2017-04-28-10-15-30;12,0;13,0;1000;1,0;3,0;2,0;0,0;row;0,0;True;True;False;0,967000007629;False;0,802999973297
UGB1995w;experiment;2017-04-28-10-15-30;12,0;14,0;1000;1,0;0,0;2,0;3,0;row;0,0;False;False;False;3,367000103;True;0,732000112534
UGB1995w;experiment;2017-04-28-10-15-30;12,0;15,0;1000;3,0;1,0;0,0;2,0;row;0,0;False;False;False;1,06599998474;True;1,13499999046
UGB1995w;experiment;2017-04-28-10-15-30;12,0;16,0;1000;0,0;2,0;3,0;1,0;column;1,0;True;False;True;1,0;True;1,03100013733
UGB1995w;experiment;2017-04-28-10-15-30;12,0;17,0;1000;3,0;1,0;2,0;0,0;row;1,0;True;False;True;2,13199996948;True;0,839999914169
UGB1995w;experiment;2017-04-28-10-15-30;12,0;18,0;1000;1,0;0,0;2,0;3,0;row;0,0;True;True;False;1,2990000248;False;0,664999961853
UGB1995w;experiment;2017-04-28-10-15-30;12,0;19,0;1000;2,0;1,0;0,0;3,0;row;1,0;True;True;False;1,90100002289;False;1,10200023651
UGB1995w;experiment;2017-04-28-10-15-30;12,0;20,0;1000;1,0;3,0;0,0;2,0;column;1,0;False;False;False;2,06699991226;True;1,02399992943
UGB1995w;experiment;2017-04-28-10-15-30;12,0;21,0;1000;2,0;0,0;1,0;3,0;column;1,0;False;False;False;1,59999990463;True;0,565999984741
UGB1995w;experiment;2017-04-28-10-15-30;12,0;22,0;1000;1,0;0,0;2,0;3,0;row;1,0;False;False;False;1,93300008774;True;0,706000089645
UGB1995w;experiment;2017-04-28-10-15-30;12,0;23,0;1000;3,0;0,0;2,0;1,0;row;0,0;True;False;False;2,70000004768;False;0,863999843597
UGB1995w;experiment;2017-04-28-10-15-30;12,0;24,0;1000;2,0;1,0;0,0;3,0;row;1,0;False;True;False;2,63399982452;True;0,821000099182
UGB1995w;experiment;2017-04-28-10-15-30;12,0;25,0;1000;3,0;0,0;1,0;2,0;row;1,0;False;True;False;3,4319999218;True;0,701999902725
UGB1995w;experiment;2017-04-28-10-15-30;12,0;26,0;1000;3,0;0,0;2,0;1,0;column;0,0;True;False;False;1,03399991989;False;1,22600007057
UGB1995w;experiment;2017-04-28-10-15-30;12,0;27,0;1000;0,0;3,0;2,0;1,0;column;1,0;True;False;True;0,866000175476;True;0,831000089645
UGB1995w;experiment;2017-04-28-10-15-30;12,0;28,0;1000;3,0;2,0;1,0;0,0;column;1,0;False;True;False;1,43400001526;True;0,526000022888
UGB1995w;experiment;2017-04-28-10-15-30;12,0;29,0;1000;1,0;2,0;3,0;0,0;row;1,0;True;False;True;1,06900000572;True;0,754999876022
UGB1995w;experiment;2017-04-28-10-15-30;12,0;30,0;1000;3,0;2,0;0,0;1,0;row;1,0;True;True;True;1,49900007248;True;1,46899986267
UGB1995w;experiment;2017-04-28-10-15-30;12,0;31,0;1000;2,0;3,0;1,0;0,0;column;1,0;False;True;False;1,06599998474;True;1,23199987411
UGB1995w;experiment;2017-04-28-10-15-30;12,0;32,0;1000;2,0;0,0;3,0;1,0;row;1,0;False;False;False;1,79399991035;True;0,796999931335
UGB1995w;experiment;2017-04-28-10-15-30;12,0;33,0;1000;0,0;2,0;1,0;3,0;column;1,0;False;False;False;1,46600008011;True;0,644000053406
UGB1995w;experiment;2017-04-28-10-15-30;12,0;34,0;1000;3,0;2,0;1,0;0,0;column;1,0;True;False;True;0,967000007629;True;1,1970000267
UGB1995w;experiment;2017-04-28-10-15-30;12,0;35,0;1000;0,0;1,0;2,0;3,0;column;1,0;True;False;False;1,06699991226;False;0,525000095367
UGB1995w;experiment;2017-04-28-10-15-30;12,0;36,0;1000;1,0;2,0;0,0;3,0;row;1,0;True;False;True;1,46700000763;True;0,9390001297
UGB1995w;experiment;2017-04-28-10-15-30;12,0;37,0;1000;1,0;0,0;2,0;3,0;row;1,0;True;True;True;1,0;True;0,765000104904
UGB1995w;experiment;2017-04-28-10-15-30;12,0;38,0;1000;0,0;2,0;3,0;1,0;row;0,0;True;False;False;1,63800001144;False;1,2650001049
UGB1995w;experiment;2017-04-28-10-15-30;12,0;39,0;1000;0,0;3,0;1,0;2,0;row;1,0;True;True;False;1,26599979401;False;0,767999887466
UGB1995w;experiment;2017-04-28-10-15-30;12,0;40,0;1000;2,0;1,0;0,0;3,0;column;0,0;False;False;False;2,17200016975;True;1,1970000267
UGB1995w;experiment;2017-04-28-10-15-30;12,0;41,0;1000;1,0;0,0;3,0;2,0;row;1,0;False;False;False;1,66700005531;True;0,737999916077
UGB1995w;experiment;2017-04-28-10-15-30;12,0;42,0;1000;1,0;0,0;3,0;2,0;column;0,0;True;True;True;1,03399991989;True;0,703999996185
UGB1995w;experiment;2017-04-28-10-15-30;12,0;43,0;1000;3,0;0,0;1,0;2,0;column;0,0;False;True;True;0,799999952316;False;0,923000097275
UGB1995w;experiment;2017-04-28-10-15-30;12,0;44,0;1000;0,0;2,0;3,0;1,0;column;1,0;False;False;False;1,76499986649;True;0,731999874115
UGB1995w;experiment;2017-04-28-10-15-30;12,0;45,0;1000;2,0;0,0;1,0;3,0;column;0,0;True;False;False;0,865000009537;False;1,33100008965
UGB1995w;experiment;2017-04-28-10-15-30;12,0;46,0;1000;2,0;1,0;3,0;0,0;column;1,0;False;False;False;1,56799983978;True;1,46200013161
UGB1995w;experiment;2017-04-28-10-15-30;12,0;47,0;1000;0,0;1,0;2,0;3,0;column;1,0;False;False;False;3,57699990273;True;0,631000041962
UGB1995w;experiment;2017-04-28-10-15-30;12,0;48,0;1000;0,0;1,0;2,0;3,0;column;0,0;True;True;True;1,00099992752;True;0,537999868393
UGB1995w;experiment;2017-04-28-10-15-30;13,0;1,0;1000;3,0;1,0;0,0;2,0;column;0,0;True;True;False;1,73199987411;False;1,2619998455
UGB1995w;experiment;2017-04-28-10-15-30;13,0;2,0;1000;3,0;1,0;0,0;2,0;column;0,0;True;True;False;1,26400017738;False;0,652000188828
UGB1995w;experiment;2017-04-28-10-15-30;13,0;3,0;1000;0,0;3,0;2,0;1,0;column;1,0;False;True;False;1,53200006485;True;0,864000082016
UGB1995w;experiment;2017-04-28-10-15-30;13,0;4,0;1000;3,0;2,0;0,0;1,0;row;1,0;False;False;False;1,36599993706;True;0,832999944687
UGB1995w;experiment;2017-04-28-10-15-30;13,0;5,0;1000;3,0;1,0;2,0;0,0;column;0,0;False;True;False;1,39999985695;True;0,56299996376
UGB1995w;experiment;2017-04-28-10-15-30;13,0;6,0;1000;2,0;3,0;1,0;0,0;column;0,0;False;False;False;2,06700015068;True;0,831000089645
UGB1995w;experiment;2017-04-28-10-15-30;13,0;7,0;1000;1,0;0,0;3,0;2,0;column;0,0;False;False;False;1,03299999237;True;0,896999835968
UGB1995w;experiment;2017-04-28-10-15-30;13,0;8,0;1000;2,0;3,0;0,0;1,0;column;0,0;False;True;False;0,799999952316;True;1,48500013351
UGB1995w;experiment;2017-04-28-10-15-30;13,0;9,0;1000;3,0;0,0;2,0;1,0;column;1,0;False;True;False;0,765999794006;True;1,35600018501
UGB1995w;experiment;2017-04-28-10-15-30;13,0;10,0;1000;0,0;1,0;3,0;2,0;column;1,0;True;True;True;1,03400015831;True;0,927999973297
UGB1995w;experiment;2017-04-28-10-15-30;13,0;11,0;1000;3,0;0,0;1,0;2,0;column;1,0;False;True;False;0,998999834061;True;0,688999891281
UGB1995w;experiment;2017-04-28-10-15-30;13,0;12,0;1000;2,0;1,0;3,0;0,0;column;0,0;True;False;True;0,600000143051;True;1,42599987984
UGB1995w;experiment;2017-04-28-10-15-30;13,0;13,0;1000;1,0;3,0;0,0;2,0;column;1,0;True;True;False;0,932999849319;False;0,829999923706
UGB1995w;experiment;2017-04-28-10-15-30;13,0;14,0;1000;2,0;3,0;1,0;0,0;row;1,0;False;False;False;0,699999809265;True;1,16300010681
UGB1995w;experiment;2017-04-28-10-15-30;13,0;15,0;1000;2,0;3,0;0,0;1,0;row;0,0;False;False;False;1,06599998474;True;0,595999956131
UGB1995w;experiment;2017-04-28-10-15-30;13,0;16,0;1000;0,0;1,0;3,0;2,0;row;0,0;False;False;False;0,934000015259;True;1,09200000763
UGB1995w;experiment;2017-04-28-10-15-30;13,0;17,0;1000;3,0;2,0;0,0;1,0;column;1,0;False;True;False;0,832000017166;True;1,23500013351
UGB1995w;experiment;2017-04-28-10-15-30;13,0;18,0;1000;0,0;2,0;1,0;3,0;column;0,0;False;False;False;0,932999849319;True;0,96799993515
UGB1995w;experiment;2017-04-28-10-15-30;13,0;19,0;1000;2,0;1,0;0,0;3,0;row;0,0;False;True;False;0,903000116348;True;1,22899985313
UGB1995w;experiment;2017-04-28-10-15-30;13,0;20,0;1000;0,0;3,0;2,0;1,0;column;0,0;True;True;False;0,733000040054;False;0,898000001907
UGB1995w;experiment;2017-04-28-10-15-30;13,0;21,0;1000;3,0;1,0;2,0;0,0;row;0,0;False;True;False;0,700000047684;True;1,33399987221
UGB1995w;experiment;2017-04-28-10-15-30;13,0;22,0;1000;1,0;3,0;0,0;2,0;column;0,0;True;True;False;0,832999944687;False;0,770999908447
UGB1995w;experiment;2017-04-28-10-15-30;13,0;23,0;1000;0,0;2,0;1,0;3,0;row;1,0;False;True;False;1,13199996948;True;1,19699978828
UGB1995w;experiment;2017-04-28-10-15-30;13,0;24,0;1000;2,0;3,0;0,0;1,0;row;1,0;False;False;False;2,03299999237;True;0,59600019455
UGB1995w;experiment;2017-04-28-10-15-30;13,0;25,0;1000;1,0;3,0;2,0;0,0;column;1,0;True;True;False;1,13300013542;False;0,629999876022
UGB1995w;experiment;2017-04-28-10-15-30;13,0;26,0;1000;2,0;1,0;3,0;0,0;column;0,0;False;True;False;1,16699981689;True;0,797999858856
UGB1995w;experiment;2017-04-28-10-15-30;13,0;27,0;1000;2,0;1,0;0,0;3,0;column;0,0;True;False;False;1,03299999237;False;0,822999954224
UGB1995w;experiment;2017-04-28-10-15-30;13,0;28,0;1000;1,0;0,0;2,0;3,0;column;1,0;False;True;False;0,766999959946;True;0,734000205994
UGB1995w;experiment;2017-04-28-10-15-30;13,0;29,0;1000;0,0;2,0;1,0;3,0;column;1,0;True;True;True;0,733000040054;True;1,08999991417
UGB1995w;experiment;2017-04-28-10-15-30;13,0;30,0;1000;2,0;1,0;3,0;0,0;row;0,0;False;False;False;1,09999990463;True;0,598000049591
UGB1995w;experiment;2017-04-28-10-15-30;13,0;31,0;1000;2,0;1,0;3,0;0,0;row;0,0;True;False;True;1,23300004005;True;0,834000110626
UGB1995w;experiment;2017-04-28-10-15-30;13,0;32,0;1000;3,0;0,0;1,0;2,0;row;0,0;False;False;False;0,96599984169;True;1,03100013733
UGB1995w;experiment;2017-04-28-10-15-30;13,0;33,0;1000;3,0;1,0;2,0;0,0;row;0,0;True;True;False;1,16599988937;False;1,19899988174
UGB1995w;experiment;2017-04-28-10-15-30;13,0;34,0;1000;0,0;1,0;2,0;3,0;row;0,0;False;False;False;0,933000087738;True;1,33899998665
UGB1995w;experiment;2017-04-28-10-15-30;13,0;35,0;1000;0,0;1,0;3,0;2,0;column;0,0;True;True;True;1,06699991226;True;0,798000097275
UGB1995w;experiment;2017-04-28-10-15-30;13,0;36,0;1000;0,0;1,0;3,0;2,0;row;1,0;False;False;False;0,766000032425;True;1,5
UGB1995w;experiment;2017-04-28-10-15-30;13,0;37,0;1000;3,0;0,0;1,0;2,0;row;1,0;True;True;True;0,565999984741;True;1,16499996185
UGB1995w;experiment;2017-04-28-10-15-30;13,0;38,0;1000;3,0;0,0;1,0;2,0;column;0,0;True;False;True;0,633999824524;True;0,697999954224
UGB1995w;experiment;2017-04-28-10-15-30;13,0;39,0;1000;2,0;0,0;1,0;3,0;column;0,0;False;False;False;0,932999849319;True;0,703000068665
UGB1995w;experiment;2017-04-28-10-15-30;13,0;40,0;1000;0,0;1,0;2,0;3,0;row;1,0;True;True;True;0,799999952316;True;1,29999995232
UGB1995w;experiment;2017-04-28-10-15-30;13,0;41,0;1000;1,0;2,0;0,0;3,0;column;1,0;True;False;True;0,466000080109;True;1,1740000248
UGB1995w;experiment;2017-04-28-10-15-30;13,0;42,0;1000;2,0;0,0;1,0;3,0;row;0,0;False;True;False;0,732000112534;True;1,16499996185
UGB1995w;experiment;2017-04-28-10-15-30;13,0;43,0;1000;2,0;0,0;3,0;1,0;row;0,0;False;True;False;0,699000120163;True;0,700000047684
UGB1995w;experiment;2017-04-28-10-15-30;13,0;44,0;1000;1,0;2,0;0,0;3,0;column;0,0;True;False;True;0,933000087738;True;0,688999891281
UGB1995w;experiment;2017-04-28-10-15-30;13,0;45,0;1000;2,0;1,0;0,0;3,0;column;1,0;False;False;False;0,867000102997;True;1,17100000381
UGB1995w;experiment;2017-04-28-10-15-30;13,0;46,0;1000;3,0;1,0;2,0;0,0;column;0,0;True;True;True;1,03299999237;True;0,732000112534
UGB1995w;experiment;2017-04-28-10-15-30;13,0;47,0;1000;3,0;2,0;1,0;0,0;row;0,0;True;True;False;0,634999990463;False;0,832000017166
UGB1995w;experiment;2017-04-28-10-15-30;13,0;48,0;1000;1,0;2,0;0,0;3,0;row;0,0;False;True;False;2,0;True;0,563999891281
