Observer;Condition;SessionID;Block;Trial;COA;Color0;Color1;Color2;Color3;Target;Which;Match;FlipComplimentary;Response;RT;Correct;OnsetDelay
UWB1993w;game;2017-04-28-11-51-38;1,0;1,0;-100;3,0;0,0;1,0;2,0;row;0,0;False;False;False;2,4509999752;True;1,31299996376
UWB1993w;game;2017-04-28-11-51-38;1,0;2,0;-100;2,0;0,0;1,0;3,0;column;1,0;False;True;True;2,04999995232;False;0,898000001907
UWB1993w;game;2017-04-28-11-51-38;1,0;3,0;-100;1,0;3,0;2,0;0,0;column;0,0;True;True;True;2,48099994659;True;0,691999912262
UWB1993w;game;2017-04-28-11-51-38;1,0;4,0;-100;0,0;3,0;2,0;1,0;column;1,0;True;True;True;1,48300004005;True;1,20000004768
UWB1993w;game;2017-04-28-11-51-38;1,0;5,0;-100;0,0;2,0;3,0;1,0;column;0,0;False;False;False;1,98399996758;True;0,802000045776
UWB1993w;game;2017-04-28-11-51-38;1,0;6,0;-100;2,0;3,0;1,0;0,0;row;1,0;False;True;True;2,78399991989;False;1,28999996185
UWB1993w;game;2017-04-28-11-51-38;1,0;7,0;-100;3,0;1,0;2,0;0,0;column;0,0;False;True;False;2,38400006294;True;1,43400001526
UWB1993w;game;2017-04-28-11-51-38;1,0;8,0;-100;1,0;0,0;2,0;3,0;row;0,0;False;False;False;2,21700000763;True;1,46900010109
UWB1993w;game;2017-04-28-11-51-38;1,0;9,0;-100;0,0;1,0;2,0;3,0;column;0,0;False;False;False;2,11500000954;True;1,09500002861
UWB1993w;game;2017-04-28-11-51-38;1,0;10,0;-100;3,0;1,0;0,0;2,0;row;0,0;False;True;False;2,38300013542;True;1,16899991035
UWB1993w;game;2017-04-28-11-51-38;1,0;11,0;-100;3,0;1,0;2,0;0,0;row;1,0;False;False;False;2,28400015831;True;1,43000006676
UWB1993w;game;2017-04-28-11-51-38;1,0;12,0;-100;2,0;0,0;3,0;1,0;column;0,0;False;False;False;2,51999998093;True;0,969000101089
UWB1993w;game;2017-04-28-11-51-38;1,0;13,0;-100;1,0;0,0;3,0;2,0;column;1,0;True;True;False;1,61500000954;False;1,09700012207
UWB1993w;game;2017-04-28-11-51-38;1,0;14,0;-100;1,0;0,0;3,0;2,0;column;1,0;False;True;True;1,31599998474;False;0,572999954224
UWB1993w;game;2017-04-28-11-51-38;1,0;15,0;-100;2,0;1,0;3,0;0,0;row;1,0;False;False;False;2,01800012589;True;0,834000110626
UWB1993w;game;2017-04-28-11-51-38;1,0;16,0;-100;0,0;2,0;1,0;3,0;row;0,0;True;False;False;1,61600017548;False;0,701999902725
UWB1993w;game;2017-04-28-11-51-38;1,0;17,0;-100;1,0;2,0;3,0;0,0;column;1,0;False;True;True;1,98099994659;False;0,699999809265
UWB1993w;game;2017-04-28-11-51-38;1,0;18,0;-100;2,0;1,0;0,0;3,0;row;1,0;False;True;False;1,71700000763;True;1,4960000515
UWB1993w;game;2017-04-28-11-51-38;1,0;19,0;-100;0,0;2,0;1,0;3,0;row;1,0;False;True;False;1,84899997711;True;1,46100020409
UWB1993w;game;2017-04-28-11-51-38;1,0;20,0;-100;3,0;2,0;1,0;0,0;row;1,0;True;False;False;1,91799998283;False;0,898999929428
UWB1993w;game;2017-04-28-11-51-38;1,0;21,0;-100;1,0;2,0;0,0;3,0;column;0,0;True;False;False;2,89299988747;False;0,930999994278
UWB1993w;game;2017-04-28-11-51-38;1,0;22,0;-100;0,0;3,0;2,0;1,0;row;0,0;True;True;True;1,88399982452;True;0,69000005722
UWB1993w;game;2017-04-28-11-51-38;1,0;23,0;-100;0,0;3,0;1,0;2,0;column;1,0;False;True;False;1,61699986458;True;1,36699986458
UWB1993w;game;2017-04-28-11-51-38;1,0;24,0;-100;1,0;2,0;0,0;3,0;row;0,0;True;False;True;2,5150001049;True;1,22499990463
UWB1993w;game;2017-04-28-11-51-38;1,0;25,0;-100;3,0;1,0;0,0;2,0;row;1,0;False;True;False;2,91699981689;True;0,662000179291
UWB1993w;game;2017-04-28-11-51-38;1,0;26,0;-100;0,0;2,0;1,0;3,0;column;1,0;False;True;True;2,61400008202;False;0,861999988556
UWB1993w;game;2017-04-28-11-51-38;1,0;27,0;-100;2,0;0,0;3,0;1,0;column;1,0;False;True;True;2,29299998283;False;1,29999995232
UWB1993w;game;2017-04-28-11-51-38;1,0;28,0;-100;3,0;1,0;0,0;2,0;column;0,0;False;True;False;1,95500016212;True;0,604999780655
UWB1993w;game;2017-04-28-11-51-38;1,0;29,0;-100;1,0;2,0;0,0;3,0;column;0,0;False;True;False;2,1970000267;True;0,593999862671
UWB1993w;game;2017-04-28-11-51-38;1,0;30,0;-100;0,0;3,0;1,0;2,0;column;1,0;True;False;True;1,91700005531;True;0,894000053406
UWB1993w;game;2017-04-28-11-51-38;1,0;31,0;-100;0,0;2,0;3,0;1,0;column;1,0;False;True;False;2,35000014305;True;1,19599986076
UWB1993w;game;2017-04-28-11-51-38;1,0;32,0;-100;2,0;0,0;1,0;3,0;column;1,0;True;True;True;2,91100001335;True;1,43099999428
UWB1993w;game;2017-04-28-11-51-38;1,0;33,0;-100;1,0;2,0;3,0;0,0;column;0,0;False;True;False;2,34999990463;True;1,22699999809
UWB1993w;game;2017-04-28-11-51-38;1,0;34,0;-100;0,0;3,0;1,0;2,0;row;0,0;False;True;False;1,94900012016;True;1,03099989891
UWB1993w;game;2017-04-28-11-51-38;1,0;35,0;-100;0,0;1,0;3,0;2,0;column;0,0;True;True;True;3,43499994278;True;0,700000047684
UWB1993w;game;2017-04-28-11-51-38;1,0;36,0;-100;2,0;0,0;3,0;1,0;row;0,0;True;True;True;2,71700000763;True;1,23799991608
UWB1993w;game;2017-04-28-11-51-38;1,0;37,0;-100;0,0;1,0;2,0;3,0;row;1,0;True;False;True;2,18200016022;True;0,805000066757
UWB1993w;game;2017-04-28-11-51-38;1,0;38,0;-100;0,0;3,0;2,0;1,0;row;1,0;False;True;False;2,64899992943;True;0,707000017166
UWB1993w;game;2017-04-28-11-51-38;1,0;39,0;-100;2,0;0,0;3,0;1,0;row;0,0;False;False;False;1,98400020599;True;1,03499984741
UWB1993w;game;2017-04-28-11-51-38;1,0;40,0;-100;0,0;1,0;2,0;3,0;column;0,0;True;False;False;1,78200006485;False;0,625999927521
UWB1993w;game;2017-04-28-11-51-38;1,0;41,0;-100;0,0;3,0;1,0;2,0;row;1,0;False;True;False;2,24800014496;True;0,870000123978
UWB1993w;game;2017-04-28-11-51-38;1,0;42,0;-100;3,0;1,0;0,0;2,0;column;0,0;True;False;True;2,38800001144;True;1,16700005531
UWB1993w;game;2017-04-28-11-51-38;1,0;43,0;-100;0,0;3,0;2,0;1,0;column;0,0;False;True;False;1,34999990463;True;1,03400015831
UWB1993w;game;2017-04-28-11-51-38;1,0;44,0;-100;3,0;1,0;0,0;2,0;column;1,0;False;False;False;2,54999995232;True;1,23000001907
UWB1993w;game;2017-04-28-11-51-38;1,0;45,0;-100;2,0;0,0;3,0;1,0;column;0,0;True;True;False;1,91600012779;False;0,666000127792
UWB1993w;game;2017-04-28-11-51-38;1,0;46,0;-100;2,0;0,0;1,0;3,0;row;0,0;False;True;False;2,31500005722;True;1,2650001049
UWB1993w;game;2017-04-28-11-51-38;1,0;47,0;-100;1,0;3,0;2,0;0,0;column;0,0;False;True;True;2,61299991608;False;1,09999990463
UWB1993w;game;2017-04-28-11-51-38;1,0;48,0;-100;1,0;0,0;3,0;2,0;row;1,0;True;True;False;2,25;False;0,670000076294
UWB1993w;game;2017-04-28-11-51-38;2,0;1,0;100;3,0;0,0;2,0;1,0;column;1,0;True;False;True;0,799999952316;True;1,44099998474
UWB1993w;game;2017-04-28-11-51-38;2,0;2,0;100;0,0;3,0;2,0;1,0;row;1,0;False;False;True;1,33399987221;False;1,23399996758
UWB1993w;game;2017-04-28-11-51-38;2,0;3,0;100;0,0;2,0;1,0;3,0;column;1,0;True;False;True;1,11199998856;True;1,03299999237
UWB1993w;game;2017-04-28-11-51-38;2,0;4,0;100;1,0;2,0;0,0;3,0;column;0,0;False;False;False;1,20000004768;True;1,32500004768
UWB1993w;game;2017-04-28-11-51-38;2,0;5,0;100;1,0;0,0;2,0;3,0;row;1,0;True;True;True;1,367000103;True;0,660000085831
UWB1993w;game;2017-04-28-11-51-38;2,0;6,0;100;0,0;3,0;1,0;2,0;column;0,0;False;True;True;1,26699995995;False;0,593999862671
UWB1993w;game;2017-04-28-11-51-38;2,0;7,0;100;1,0;3,0;0,0;2,0;column;0,0;True;False;True;2,16599988937;True;0,99799990654
UWB1993w;game;2017-04-28-11-51-38;2,0;8,0;100;2,0;0,0;1,0;3,0;column;0,0;True;True;True;0,933000087738;True;0,891999959946
UWB1993w;game;2017-04-28-11-51-38;2,0;9,0;100;1,0;2,0;0,0;3,0;row;0,0;True;True;False;1,33299994469;False;1,26099991798
UWB1993w;game;2017-04-28-11-51-38;2,0;10,0;100;1,0;0,0;2,0;3,0;column;1,0;True;True;True;0,901000022888;True;1,0039999485
UWB1993w;game;2017-04-28-11-51-38;2,0;11,0;100;1,0;2,0;0,0;3,0;row;0,0;False;True;True;1,16599988937;False;1,33500003815
UWB1993w;game;2017-04-28-11-51-38;2,0;12,0;100;1,0;0,0;3,0;2,0;row;1,0;True;False;True;1,83400011063;True;1,16599988937
UWB1993w;game;2017-04-28-11-51-38;2,0;13,0;100;1,0;2,0;3,0;0,0;row;0,0;True;False;True;1,03199982643;True;0,905999898911
UWB1993w;game;2017-04-28-11-51-38;2,0;14,0;100;3,0;1,0;2,0;0,0;row;0,0;False;True;False;2,83299994469;True;0,702999830246
UWB1993w;game;2017-04-28-11-51-38;2,0;15,0;100;1,0;2,0;3,0;0,0;row;1,0;False;False;True;1,26599979401;False;0,534999847412
UWB1993w;game;2017-04-28-11-51-38;2,0;16,0;100;3,0;2,0;1,0;0,0;row;1,0;False;False;True;2,27300000191;False;0,762000083923
UWB1993w;game;2017-04-28-11-51-38;2,0;17,0;100;0,0;3,0;1,0;2,0;row;0,0;True;True;True;1,56599998474;True;0,600000143051
UWB1993w;game;2017-04-28-11-51-38;2,0;18,0;100;0,0;2,0;3,0;1,0;column;1,0;True;False;False;1,93300008774;False;0,530999898911
UWB1993w;game;2017-04-28-11-51-38;2,0;19,0;100;0,0;1,0;3,0;2,0;column;0,0;False;True;True;0,899999856949;False;1,05400013924
UWB1993w;game;2017-04-28-11-51-38;2,0;20,0;100;3,0;0,0;2,0;1,0;column;1,0;False;True;True;1,86800003052;False;1,02499985695
UWB1993w;game;2017-04-28-11-51-38;2,0;21,0;100;3,0;0,0;2,0;1,0;row;1,0;False;True;True;2,06699991226;False;0,700999975204
UWB1993w;game;2017-04-28-11-51-38;2,0;22,0;100;0,0;3,0;1,0;2,0;row;1,0;True;True;True;1,36699986458;True;1,44200015068
UWB1993w;game;2017-04-28-11-51-38;2,0;23,0;100;3,0;2,0;1,0;0,0;column;0,0;False;True;True;1,51300001144;False;1,16499996185
UWB1993w;game;2017-04-28-11-51-38;2,0;24,0;100;0,0;1,0;2,0;3,0;column;1,0;True;True;True;1,23199987411;True;0,822999954224
UWB1993w;game;2017-04-28-11-51-38;2,0;25,0;100;0,0;2,0;1,0;3,0;row;0,0;False;False;False;1,26600003242;True;1,03600001335
UWB1993w;game;2017-04-28-11-51-38;2,0;26,0;100;3,0;1,0;0,0;2,0;row;0,0;True;False;True;1,0;True;1,04099988937
UWB1993w;game;2017-04-28-11-51-38;2,0;27,0;100;1,0;0,0;3,0;2,0;column;1,0;False;True;True;1,132999897;False;1,40599989891
UWB1993w;game;2017-04-28-11-51-38;2,0;28,0;100;1,0;0,0;2,0;3,0;column;0,0;False;False;True;2,47199988365;False;1,46499991417
UWB1993w;game;2017-04-28-11-51-38;2,0;29,0;100;3,0;2,0;1,0;0,0;column;1,0;True;False;True;1,132999897;True;0,960999965668
UWB1993w;game;2017-04-28-11-51-38;2,0;30,0;100;3,0;0,0;2,0;1,0;column;0,0;False;True;False;1,26600003242;True;1,29199981689
UWB1993w;game;2017-04-28-11-51-38;2,0;31,0;100;2,0;1,0;3,0;0,0;row;1,0;True;False;True;2,53399991989;True;0,634999990463
UWB1993w;game;2017-04-28-11-51-38;2,0;32,0;100;1,0;2,0;0,0;3,0;column;1,0;True;True;True;1,49800014496;True;1,13499999046
UWB1993w;game;2017-04-28-11-51-38;2,0;33,0;100;1,0;3,0;2,0;0,0;column;0,0;True;True;False;1,79899978638;False;1,27100014687
UWB1993w;game;2017-04-28-11-51-38;2,0;34,0;100;3,0;1,0;0,0;2,0;row;0,0;False;False;True;1,69899988174;False;0,598999977112
UWB1993w;game;2017-04-28-11-51-38;2,0;35,0;100;2,0;0,0;3,0;1,0;row;0,0;False;True;True;1,96700000763;False;0,923000097275
UWB1993w;game;2017-04-28-11-51-38;2,0;36,0;100;1,0;3,0;0,0;2,0;column;1,0;False;True;False;2,5649998188;True;0,771999835968
UWB1993w;game;2017-04-28-11-51-38;2,0;37,0;100;1,0;3,0;2,0;0,0;row;0,0;True;True;False;1,63399982452;False;1,46700000763
UWB1993w;game;2017-04-28-11-51-38;2,0;38,0;100;3,0;0,0;1,0;2,0;row;0,0;False;False;True;1,10099983215;False;1,22699999809
UWB1993w;game;2017-04-28-11-51-38;2,0;39,0;100;0,0;1,0;3,0;2,0;column;1,0;True;True;True;1,87000012398;True;0,766999959946
UWB1993w;game;2017-04-28-11-51-38;2,0;40,0;100;0,0;3,0;1,0;2,0;row;1,0;False;False;True;1,23300004005;False;1,257999897
UWB1993w;game;2017-04-28-11-51-38;2,0;41,0;100;0,0;2,0;3,0;1,0;row;0,0;True;True;True;1,1400001049;True;0,994000196457
UWB1993w;game;2017-04-28-11-51-38;2,0;42,0;100;3,0;1,0;2,0;0,0;row;1,0;False;True;True;1,26600003242;False;1,00099992752
UWB1993w;game;2017-04-28-11-51-38;2,0;43,0;100;0,0;1,0;2,0;3,0;row;1,0;True;False;False;0,999000072479;False;1,23500013351
UWB1993w;game;2017-04-28-11-51-38;2,0;44,0;100;2,0;3,0;0,0;1,0;column;1,0;True;True;True;1,23299980164;True;1,23100018501
UWB1993w;game;2017-04-28-11-51-38;2,0;45,0;100;1,0;0,0;3,0;2,0;row;1,0;False;True;True;1,09899997711;False;1,26999998093
UWB1993w;game;2017-04-28-11-51-38;2,0;46,0;100;3,0;1,0;0,0;2,0;column;1,0;False;True;False;1,86599993706;True;0,799000024796
UWB1993w;game;2017-04-28-11-51-38;2,0;47,0;100;3,0;0,0;1,0;2,0;column;0,0;True;True;True;1,20000004768;True;1,15999984741
UWB1993w;game;2017-04-28-11-51-38;2,0;48,0;100;2,0;3,0;1,0;0,0;column;1,0;True;True;True;1,16799998283;True;0,961000204086
UWB1993w;game;2017-04-28-11-51-38;3,0;1,0;1000;0,0;1,0;2,0;3,0;row;0,0;False;True;True;1,23300004005;False;1,43600010872
UWB1993w;game;2017-04-28-11-51-38;3,0;2,0;1000;0,0;3,0;2,0;1,0;column;1,0;False;True;False;1,60000014305;True;0,967000007629
UWB1993w;game;2017-04-28-11-51-38;3,0;3,0;1000;3,0;0,0;1,0;2,0;column;1,0;True;False;True;0,901000022888;True;1,39599990845
UWB1993w;game;2017-04-28-11-51-38;3,0;4,0;1000;3,0;1,0;0,0;2,0;column;1,0;True;True;True;1,09999990463;True;0,733999967575
UWB1993w;game;2017-04-28-11-51-38;3,0;5,0;1000;2,0;0,0;1,0;3,0;column;0,0;False;True;True;1,83299994469;False;1,23000001907
UWB1993w;game;2017-04-28-11-51-38;3,0;6,0;1000;1,0;3,0;2,0;0,0;row;1,0;True;True;True;1,33200001717;True;0,628999948502
UWB1993w;game;2017-04-28-11-51-38;3,0;7,0;1000;3,0;0,0;1,0;2,0;column;0,0;True;False;True;1,23300004005;True;1,45600008965
UWB1993w;game;2017-04-28-11-51-38;3,0;8,0;1000;2,0;3,0;1,0;0,0;column;1,0;True;False;True;0,933000087738;True;1,00300002098
UWB1993w;game;2017-04-28-11-51-38;3,0;9,0;1000;1,0;0,0;3,0;2,0;row;1,0;True;True;True;1,10000014305;True;0,835999965668
UWB1993w;game;2017-04-28-11-51-38;3,0;10,0;1000;1,0;2,0;3,0;0,0;column;0,0;True;False;True;1,86699986458;True;1,46499991417
UWB1993w;game;2017-04-28-11-51-38;3,0;11,0;1000;0,0;1,0;2,0;3,0;row;1,0;False;False;False;1,23199987411;True;0,868999958038
UWB1993w;game;2017-04-28-11-51-38;3,0;12,0;1000;2,0;3,0;0,0;1,0;column;1,0;False;True;False;1,63400006294;True;1,07199978828
UWB1993w;game;2017-04-28-11-51-38;3,0;13,0;1000;1,0;0,0;2,0;3,0;column;1,0;False;True;True;1,66700005531;False;1,26699995995
UWB1993w;game;2017-04-28-11-51-38;3,0;14,0;1000;3,0;2,0;0,0;1,0;column;0,0;False;True;True;0,934000015259;False;0,865000009537
UWB1993w;game;2017-04-28-11-51-38;3,0;15,0;1000;3,0;2,0;0,0;1,0;row;0,0;True;False;True;1,20000004768;True;1,00099992752
UWB1993w;game;2017-04-28-11-51-38;3,0;16,0;1000;1,0;3,0;0,0;2,0;column;1,0;False;True;False;1,43499994278;True;1,1320002079
UWB1993w;game;2017-04-28-11-51-38;3,0;17,0;1000;3,0;2,0;1,0;0,0;row;1,0;True;True;True;1,89800000191;True;1,00300002098
UWB1993w;game;2017-04-28-11-51-38;3,0;18,0;1000;0,0;1,0;3,0;2,0;row;1,0;False;True;False;1,36600017548;True;1,19600009918
UWB1993w;game;2017-04-28-11-51-38;3,0;19,0;1000;3,0;0,0;1,0;2,0;column;0,0;False;True;False;1,70000004768;True;1,13899993896
UWB1993w;game;2017-04-28-11-51-38;3,0;20,0;1000;0,0;2,0;3,0;1,0;column;1,0;False;False;True;2,70000004768;False;0,699000120163
UWB1993w;game;2017-04-28-11-51-38;3,0;21,0;1000;3,0;1,0;0,0;2,0;row;1,0;True;False;False;1,73399996758;False;1,12900018692
UWB1993w;game;2017-04-28-11-51-38;3,0;22,0;1000;1,0;0,0;2,0;3,0;column;0,0;False;True;True;1,26600003242;False;0,56299996376
UWB1993w;game;2017-04-28-11-51-38;3,0;23,0;1000;1,0;2,0;3,0;0,0;row;1,0;True;False;True;2,39999985695;True;0,700000047684
UWB1993w;game;2017-04-28-11-51-38;3,0;24,0;1000;2,0;3,0;0,0;1,0;row;0,0;False;False;True;1,60000014305;False;0,793999910355
UWB1993w;game;2017-04-28-11-51-38;3,0;25,0;1000;1,0;3,0;2,0;0,0;column;1,0;False;False;True;1,0;False;1,36199998856
UWB1993w;game;2017-04-28-11-51-38;3,0;26,0;1000;2,0;1,0;0,0;3,0;row;0,0;True;True;True;1,73300004005;True;0,768000125885
UWB1993w;game;2017-04-28-11-51-38;3,0;27,0;1000;2,0;3,0;0,0;1,0;row;0,0;True;True;True;1,06599998474;True;1,36500000954
UWB1993w;game;2017-04-28-11-51-38;3,0;28,0;1000;3,0;2,0;0,0;1,0;column;0,0;True;True;False;1,73399996758;False;1,367000103
UWB1993w;game;2017-04-28-11-51-38;3,0;29,0;1000;0,0;1,0;2,0;3,0;column;1,0;False;True;True;1,40000009537;False;1,5070002079
UWB1993w;game;2017-04-28-11-51-38;3,0;30,0;1000;0,0;3,0;1,0;2,0;row;1,0;True;False;True;1,77900004387;True;1,22500014305
UWB1993w;game;2017-04-28-11-51-38;3,0;31,0;1000;1,0;0,0;3,0;2,0;column;1,0;False;True;False;1,83500003815;True;1,16499996185
UWB1993w;game;2017-04-28-11-51-38;3,0;32,0;1000;2,0;3,0;0,0;1,0;column;0,0;True;False;False;1,59899997711;False;0,598000049591
UWB1993w;game;2017-04-28-11-51-38;3,0;33,0;1000;1,0;3,0;0,0;2,0;row;0,0;True;False;False;2,56599998474;False;0,56200003624
UWB1993w;game;2017-04-28-11-51-38;3,0;34,0;1000;3,0;2,0;1,0;0,0;column;1,0;True;False;True;1,16499996185;True;0,986000061035
UWB1993w;game;2017-04-28-11-51-38;3,0;35,0;1000;1,0;2,0;3,0;0,0;row;1,0;False;True;False;1,46499991417;True;0,766000032425
UWB1993w;game;2017-04-28-11-51-38;3,0;36,0;1000;3,0;0,0;2,0;1,0;column;0,0;False;True;True;2,39899992943;False;0,628999948502
UWB1993w;game;2017-04-28-11-51-38;3,0;37,0;1000;1,0;3,0;2,0;0,0;row;0,0;False;False;True;1,20000004768;False;1,27200007439
UWB1993w;game;2017-04-28-11-51-38;3,0;38,0;1000;2,0;3,0;1,0;0,0;row;1,0;False;False;True;1,13300013542;False;1,39399981499
UWB1993w;game;2017-04-28-11-51-38;3,0;39,0;1000;0,0;2,0;1,0;3,0;row;1,0;False;True;False;1,70000004768;True;0,735999822617
UWB1993w;game;2017-04-28-11-51-38;3,0;40,0;1000;0,0;3,0;2,0;1,0;row;1,0;False;True;True;1,83100008965;False;1,33100008965
UWB1993w;game;2017-04-28-11-51-38;3,0;41,0;1000;2,0;3,0;1,0;0,0;row;1,0;True;False;True;3,0;True;1,50400018692
UWB1993w;game;2017-04-28-11-51-38;3,0;42,0;1000;1,0;0,0;3,0;2,0;column;0,0;False;True;False;1,60000014305;True;0,866999864578
UWB1993w;game;2017-04-28-11-51-38;3,0;43,0;1000;0,0;2,0;1,0;3,0;column;0,0;False;False;False;1,23300004005;True;0,626000165939
UWB1993w;game;2017-04-28-11-51-38;3,0;44,0;1000;0,0;2,0;1,0;3,0;column;1,0;False;False;True;1,59899997711;False;0,704999923706
UWB1993w;game;2017-04-28-11-51-38;3,0;45,0;1000;3,0;2,0;1,0;0,0;column;1,0;False;True;False;2,03400015831;True;0,600000143051
UWB1993w;game;2017-04-28-11-51-38;3,0;46,0;1000;0,0;2,0;1,0;3,0;column;0,0;True;False;False;2,66599988937;False;1,47000002861
UWB1993w;game;2017-04-28-11-51-38;3,0;47,0;1000;2,0;1,0;0,0;3,0;column;1,0;True;False;False;1,30000019073;False;1,36600017548
UWB1993w;game;2017-04-28-11-51-38;3,0;48,0;1000;3,0;0,0;1,0;2,0;row;1,0;True;False;True;2,86500000954;True;0,559000015259
UWB1993w;game;2017-04-28-11-51-38;4,0;1,0;100;2,0;1,0;0,0;3,0;column;1,0;False;False;True;1,09899997711;False;1,38599991798
UWB1993w;game;2017-04-28-11-51-38;4,0;2,0;100;0,0;2,0;1,0;3,0;column;0,0;True;True;True;1,26600003242;True;0,764999866486
UWB1993w;game;2017-04-28-11-51-38;4,0;3,0;100;2,0;1,0;0,0;3,0;column;0,0;False;False;True;1,90000009537;False;0,934000015259
UWB1993w;game;2017-04-28-11-51-38;4,0;4,0;100;3,0;2,0;0,0;1,0;row;0,0;False;False;True;1,2009999752;False;1,36199998856
UWB1993w;game;2017-04-28-11-51-38;4,0;5,0;100;2,0;3,0;0,0;1,0;column;1,0;False;True;True;1,13300013542;False;1,23099994659
UWB1993w;game;2017-04-28-11-51-38;4,0;6,0;100;1,0;2,0;3,0;0,0;row;0,0;False;True;True;2,39800000191;False;1,36199998856
UWB1993w;game;2017-04-28-11-51-38;4,0;7,0;100;3,0;0,0;2,0;1,0;row;1,0;True;False;True;1,10100007057;True;1,49300003052
UWB1993w;game;2017-04-28-11-51-38;4,0;8,0;100;2,0;1,0;3,0;0,0;column;1,0;True;False;True;3,03299999237;True;1,0
UWB1993w;game;2017-04-28-11-51-38;4,0;9,0;100;3,0;2,0;1,0;0,0;column;1,0;False;False;True;1,49899983406;False;0,866000175476
UWB1993w;game;2017-04-28-11-51-38;4,0;10,0;100;0,0;2,0;3,0;1,0;column;0,0;True;False;False;1,83400011063;False;0,865999937057
UWB1993w;game;2017-04-28-11-51-38;4,0;11,0;100;1,0;2,0;0,0;3,0;row;1,0;True;True;True;1,06600022316;True;0,670000076294
UWB1993w;game;2017-04-28-11-51-38;4,0;12,0;100;0,0;3,0;2,0;1,0;column;1,0;True;True;True;1,86699986458;True;0,980999946594
UWB1993w;game;2017-04-28-11-51-38;4,0;13,0;100;2,0;0,0;3,0;1,0;column;0,0;False;True;True;1,06599998474;False;1,13000011444
UWB1993w;game;2017-04-28-11-51-38;4,0;14,0;100;3,0;1,0;2,0;0,0;row;1,0;True;False;False;1,60199999809;False;0,901000022888
UWB1993w;game;2017-04-28-11-51-38;4,0;15,0;100;3,0;1,0;2,0;0,0;column;1,0;False;True;True;1,70000004768;False;0,99799990654
UWB1993w;game;2017-04-28-11-51-38;4,0;16,0;100;2,0;1,0;0,0;3,0;column;1,0;True;False;True;1,83299994469;True;0,957000017166
UWB1993w;game;2017-04-28-11-51-38;4,0;17,0;100;2,0;1,0;3,0;0,0;row;1,0;False;False;True;1,76599979401;False;1,28999996185
UWB1993w;game;2017-04-28-11-51-38;4,0;18,0;100;1,0;0,0;2,0;3,0;column;1,0;False;False;False;1,76600003242;True;0,898000001907
UWB1993w;game;2017-04-28-11-51-38;4,0;19,0;100;0,0;1,0;2,0;3,0;column;0,0;False;True;False;2,13300013542;True;1,46399998665
UWB1993w;game;2017-04-28-11-51-38;4,0;20,0;100;0,0;2,0;1,0;3,0;row;1,0;False;False;True;2,507999897;False;0,990999937057
UWB1993w;game;2017-04-28-11-51-38;4,0;21,0;100;3,0;0,0;1,0;2,0;column;1,0;True;False;False;1,53299999237;False;0,775000095367
UWB1993w;game;2017-04-28-11-51-38;4,0;22,0;100;2,0;0,0;3,0;1,0;column;0,0;True;False;True;1,89999985695;True;0,598999977112
UWB1993w;game;2017-04-28-11-51-38;4,0;23,0;100;3,0;1,0;2,0;0,0;row;0,0;True;True;True;1,86699986458;True;1,39899992943
UWB1993w;game;2017-04-28-11-51-38;4,0;24,0;100;2,0;1,0;0,0;3,0;row;0,0;False;True;False;1,66600012779;True;0,524999856949
UWB1993w;game;2017-04-28-11-51-38;4,0;25,0;100;2,0;0,0;1,0;3,0;row;1,0;True;False;True;1,63300013542;True;1,17100000381
UWB1993w;game;2017-04-28-11-51-38;4,0;26,0;100;0,0;1,0;3,0;2,0;row;0,0;True;False;True;1,06699991226;True;1,4390001297
UWB1993w;game;2017-04-28-11-51-38;4,0;27,0;100;0,0;1,0;2,0;3,0;row;1,0;False;False;False;1,33300018311;True;0,906999826431
UWB1993w;game;2017-04-28-11-51-38;4,0;28,0;100;2,0;1,0;0,0;3,0;row;1,0;True;False;True;1,132999897;True;1,00100016594
UWB1993w;game;2017-04-28-11-51-38;4,0;29,0;100;0,0;1,0;3,0;2,0;column;1,0;False;True;True;1,39899992943;False;0,52599978447
UWB1993w;game;2017-04-28-11-51-38;4,0;30,0;100;3,0;2,0;0,0;1,0;row;1,0;False;False;False;1,73300004005;True;1,23300004005
UWB1993w;game;2017-04-28-11-51-38;4,0;31,0;100;3,0;2,0;1,0;0,0;column;0,0;True;True;False;1,20000004768;False;1,45799994469
UWB1993w;game;2017-04-28-11-51-38;4,0;32,0;100;1,0;3,0;2,0;0,0;column;0,0;False;False;True;1,16799998283;False;1,12600016594
UWB1993w;game;2017-04-28-11-51-38;4,0;33,0;100;3,0;0,0;1,0;2,0;column;0,0;False;False;False;1,867000103;True;1,19900012016
UWB1993w;game;2017-04-28-11-51-38;4,0;34,0;100;0,0;3,0;1,0;2,0;column;1,0;False;False;False;1,53200006485;True;0,765000104904
UWB1993w;game;2017-04-28-11-51-38;4,0;35,0;100;0,0;3,0;1,0;2,0;row;0,0;False;True;True;2,5;False;0,90499997139
UWB1993w;game;2017-04-28-11-51-38;4,0;36,0;100;0,0;2,0;1,0;3,0;column;1,0;False;True;True;1,76800012589;False;0,934000015259
UWB1993w;game;2017-04-28-11-51-38;4,0;37,0;100;2,0;0,0;1,0;3,0;column;1,0;False;True;False;1,79999995232;True;1,49399995804
UWB1993w;game;2017-04-28-11-51-38;4,0;38,0;100;1,0;3,0;0,0;2,0;row;1,0;False;False;True;1,632999897;False;1,20700001717
UWB1993w;game;2017-04-28-11-51-38;4,0;39,0;100;1,0;3,0;0,0;2,0;row;1,0;True;True;True;1,10400009155;True;0,834999799728
UWB1993w;game;2017-04-28-11-51-38;4,0;40,0;100;1,0;0,0;3,0;2,0;column;0,0;True;False;True;1,33100008965;True;1,43300008774
UWB1993w;game;2017-04-28-11-51-38;4,0;41,0;100;2,0;3,0;1,0;0,0;row;1,0;False;False;False;1,70000004768;True;1,23199987411
UWB1993w;game;2017-04-28-11-51-38;4,0;42,0;100;2,0;0,0;1,0;3,0;row;0,0;False;True;True;2,14500021935;False;0,865999937057
UWB1993w;game;2017-04-28-11-51-38;4,0;43,0;100;3,0;1,0;0,0;2,0;row;1,0;True;False;False;1,56700015068;False;0,861999988556
UWB1993w;game;2017-04-28-11-51-38;4,0;44,0;100;1,0;0,0;3,0;2,0;column;1,0;True;False;True;1,93300008774;True;1,06599998474
UWB1993w;game;2017-04-28-11-51-38;4,0;45,0;100;1,0;0,0;3,0;2,0;row;0,0;True;True;True;1,93000006676;True;1,26800012589
UWB1993w;game;2017-04-28-11-51-38;4,0;46,0;100;3,0;2,0;0,0;1,0;column;1,0;False;True;True;1,83200001717;False;0,603000164032
UWB1993w;game;2017-04-28-11-51-38;4,0;47,0;100;2,0;0,0;3,0;1,0;column;1,0;True;True;True;1,19900012016;True;0,767000198364
UWB1993w;game;2017-04-28-11-51-38;4,0;48,0;100;3,0;0,0;2,0;1,0;row;0,0;False;False;True;2,03299999237;False;1,52899980545
UWB1993w;game;2017-04-28-11-51-38;5,0;1,0;1000;0,0;1,0;3,0;2,0;row;1,0;True;False;True;0,868000030518;True;0,564999818802
UWB1993w;game;2017-04-28-11-51-38;5,0;2,0;1000;0,0;3,0;2,0;1,0;column;0,0;True;False;True;0,900000095367;True;0,523999929428
UWB1993w;game;2017-04-28-11-51-38;5,0;3,0;1000;0,0;1,0;2,0;3,0;column;0,0;True;False;True;1,16700005531;True;1,3029999733
UWB1993w;game;2017-04-28-11-51-38;5,0;4,0;1000;3,0;1,0;2,0;0,0;column;0,0;True;False;True;1,13300013542;True;0,56500005722
UWB1993w;game;2017-04-28-11-51-38;5,0;5,0;1000;0,0;2,0;3,0;1,0;column;0,0;True;False;False;1,632999897;False;1,25999999046
UWB1993w;game;2017-04-28-11-51-38;5,0;6,0;1000;0,0;3,0;1,0;2,0;row;0,0;False;False;True;1,59999990463;False;1,50499987602
UWB1993w;game;2017-04-28-11-51-38;5,0;7,0;1000;2,0;0,0;1,0;3,0;column;0,0;True;True;False;1,66600012779;False;1,30100011826
UWB1993w;game;2017-04-28-11-51-38;5,0;8,0;1000;2,0;1,0;0,0;3,0;row;0,0;False;False;True;1,2990000248;False;0,765000104904
UWB1993w;game;2017-04-28-11-51-38;5,0;9,0;1000;2,0;1,0;3,0;0,0;column;0,0;False;True;True;1,16700005531;False;1,23799991608
UWB1993w;game;2017-04-28-11-51-38;5,0;10,0;1000;1,0;0,0;2,0;3,0;column;0,0;True;False;False;1,86500000954;False;0,531000137329
UWB1993w;game;2017-04-28-11-51-38;5,0;11,0;1000;3,0;0,0;2,0;1,0;column;1,0;True;True;True;1,09899997711;True;1,33400011063
UWB1993w;game;2017-04-28-11-51-38;5,0;12,0;1000;0,0;1,0;2,0;3,0;column;1,0;True;True;True;0,967000007629;True;0,856000185013
UWB1993w;game;2017-04-28-11-51-38;5,0;13,0;1000;3,0;0,0;2,0;1,0;row;0,0;False;False;True;0,899999856949;False;0,839999914169
UWB1993w;game;2017-04-28-11-51-38;5,0;14,0;1000;3,0;1,0;0,0;2,0;row;0,0;True;True;True;1,73399996758;True;1,20500016212
UWB1993w;game;2017-04-28-11-51-38;5,0;15,0;1000;1,0;2,0;0,0;3,0;row;0,0;False;False;True;1,66700005531;False;0,931999921799
UWB1993w;game;2017-04-28-11-51-38;5,0;16,0;1000;2,0;1,0;3,0;0,0;row;0,0;True;True;False;1,03299999237;False;0,733000040054
UWB1993w;game;2017-04-28-11-51-38;5,0;17,0;1000;3,0;2,0;1,0;0,0;column;0,0;False;True;True;1,73399996758;False;1,12700009346
UWB1993w;game;2017-04-28-11-51-38;5,0;18,0;1000;0,0;1,0;2,0;3,0;row;0,0;True;False;True;1,96600008011;True;1,06500005722
UWB1993w;game;2017-04-28-11-51-38;5,0;19,0;1000;2,0;0,0;1,0;3,0;row;0,0;False;True;False;1,53500008583;True;0,924000024796
UWB1993w;game;2017-04-28-11-51-38;5,0;20,0;1000;1,0;3,0;2,0;0,0;column;0,0;False;True;False;3,43200016022;True;1,13199996948
UWB1993w;game;2017-04-28-11-51-38;5,0;21,0;1000;1,0;0,0;3,0;2,0;column;1,0;True;True;True;1,63100004196;True;0,96799993515
UWB1993w;game;2017-04-28-11-51-38;5,0;22,0;1000;0,0;3,0;2,0;1,0;column;0,0;False;True;False;1,46799993515;True;0,6890001297
UWB1993w;game;2017-04-28-11-51-38;5,0;23,0;1000;0,0;1,0;3,0;2,0;row;0,0;True;False;True;1,70499992371;True;0,830999851227
UWB1993w;game;2017-04-28-11-51-38;5,0;24,0;1000;2,0;3,0;1,0;0,0;column;0,0;True;False;True;1,46399998665;True;0,601999998093
UWB1993w;game;2017-04-28-11-51-38;5,0;25,0;1000;2,0;1,0;0,0;3,0;column;0,0;True;False;True;1,03299999237;True;1,15700006485
UWB1993w;game;2017-04-28-11-51-38;5,0;26,0;1000;0,0;3,0;2,0;1,0;column;1,0;True;True;True;1,40000009537;True;0,592000007629
UWB1993w;game;2017-04-28-11-51-38;5,0;27,0;1000;3,0;1,0;2,0;0,0;column;1,0;False;True;True;1,56599998474;False;1,37299990654
UWB1993w;game;2017-04-28-11-51-38;5,0;28,0;1000;2,0;3,0;0,0;1,0;column;1,0;True;False;False;1,93400001526;False;0,729999780655
UWB1993w;game;2017-04-28-11-51-38;5,0;29,0;1000;0,0;1,0;3,0;2,0;row;0,0;False;False;False;2,10599994659;True;1,15799999237
UWB1993w;game;2017-04-28-11-51-38;5,0;30,0;1000;1,0;3,0;0,0;2,0;row;1,0;True;False;False;2,23799991608;False;0,990000009537
UWB1993w;game;2017-04-28-11-51-38;5,0;31,0;1000;3,0;2,0;0,0;1,0;row;1,0;False;False;True;1,43300008774;False;1,05599999428
UWB1993w;game;2017-04-28-11-51-38;5,0;32,0;1000;3,0;0,0;2,0;1,0;row;1,0;False;True;False;2,0;True;1,17200016975
UWB1993w;game;2017-04-28-11-51-38;5,0;33,0;1000;2,0;0,0;3,0;1,0;column;0,0;False;False;False;1,96700000763;True;1,33200001717
UWB1993w;game;2017-04-28-11-51-38;5,0;34,0;1000;0,0;2,0;3,0;1,0;column;0,0;False;False;False;1,16599988937;True;1,03500008583
UWB1993w;game;2017-04-28-11-51-38;5,0;35,0;1000;2,0;0,0;3,0;1,0;row;0,0;False;True;False;2,49899983406;True;0,536000013351
UWB1993w;game;2017-04-28-11-51-38;5,0;36,0;1000;2,0;1,0;3,0;0,0;column;0,0;True;True;True;2,43200016022;True;1,17199993134
UWB1993w;game;2017-04-28-11-51-38;5,0;37,0;1000;1,0;0,0;2,0;3,0;row;0,0;True;True;True;1,73399996758;True;0,929999828339
UWB1993w;game;2017-04-28-11-51-38;5,0;38,0;1000;1,0;3,0;2,0;0,0;row;1,0;False;False;True;2,06700015068;False;1,22699999809
UWB1993w;game;2017-04-28-11-51-38;5,0;39,0;1000;1,0;2,0;0,0;3,0;row;0,0;True;False;True;1,31399989128;True;0,861999988556
UWB1993w;game;2017-04-28-11-51-38;5,0;40,0;1000;2,0;3,0;1,0;0,0;row;0,0;True;False;False;1,36800003052;False;0,904000043869
UWB1993w;game;2017-04-28-11-51-38;5,0;41,0;1000;1,0;3,0;0,0;2,0;column;0,0;False;False;True;2,0;False;0,996999979019
UWB1993w;game;2017-04-28-11-51-38;5,0;42,0;1000;3,0;1,0;2,0;0,0;row;0,0;False;False;True;1,36800003052;False;1,46499991417
UWB1993w;game;2017-04-28-11-51-38;5,0;43,0;1000;1,0;0,0;2,0;3,0;row;1,0;False;True;False;1,83399987221;True;0,789999961853
UWB1993w;game;2017-04-28-11-51-38;5,0;44,0;1000;1,0;2,0;0,0;3,0;column;1,0;True;False;True;1,86599993706;True;1,09899997711
UWB1993w;game;2017-04-28-11-51-38;5,0;45,0;1000;2,0;1,0;0,0;3,0;column;0,0;False;True;False;1,43299984932;True;1,46700000763
UWB1993w;game;2017-04-28-11-51-38;5,0;46,0;1000;2,0;3,0;0,0;1,0;row;1,0;False;True;False;2,16600012779;True;0,632999897003
UWB1993w;game;2017-04-28-11-51-38;5,0;47,0;1000;3,0;0,0;2,0;1,0;column;0,0;True;True;True;2,03299999237;True;1,33899998665
UWB1993w;game;2017-04-28-11-51-38;5,0;48,0;1000;2,0;1,0;0,0;3,0;row;1,0;False;True;False;1,26699995995;True;1,37199997902
UWB1993w;game;2017-04-28-11-51-38;6,0;1,0;-100;0,0;3,0;2,0;1,0;column;0,0;True;False;True;1,11699986458;True;1,36899995804
UWB1993w;game;2017-04-28-11-51-38;6,0;2,0;-100;0,0;1,0;3,0;2,0;row;0,0;True;True;True;1,71600008011;True;0,535000085831
UWB1993w;game;2017-04-28-11-51-38;6,0;3,0;-100;0,0;3,0;2,0;1,0;row;1,0;True;False;False;1,38000011444;False;1,367000103
UWB1993w;game;2017-04-28-11-51-38;6,0;4,0;-100;1,0;2,0;3,0;0,0;row;0,0;False;True;True;1,68400001526;False;0,767999887466
UWB1993w;game;2017-04-28-11-51-38;6,0;5,0;-100;1,0;2,0;3,0;0,0;column;1,0;True;True;True;1,78600001335;True;1,36800003052
UWB1993w;game;2017-04-28-11-51-38;6,0;6,0;-100;3,0;0,0;1,0;2,0;column;0,0;False;True;True;1,48300004005;False;1,10500001907
UWB1993w;game;2017-04-28-11-51-38;6,0;7,0;-100;3,0;0,0;2,0;1,0;column;0,0;False;True;True;1,5490000248;False;0,703000068665
UWB1993w;game;2017-04-28-11-51-38;6,0;8,0;-100;3,0;0,0;1,0;2,0;column;1,0;False;False;True;1,64800000191;False;1,06200003624
UWB1993w;game;2017-04-28-11-51-38;6,0;9,0;-100;0,0;3,0;2,0;1,0;column;1,0;False;True;False;2,41599988937;True;1,16999983788
UWB1993w;game;2017-04-28-11-51-38;6,0;10,0;-100;2,0;0,0;1,0;3,0;column;0,0;True;False;True;1,48400020599;True;0,832000017166
UWB1993w;game;2017-04-28-11-51-38;6,0;11,0;-100;3,0;2,0;0,0;1,0;column;0,0;True;False;True;1,34999990463;True;1,39200019836
UWB1993w;game;2017-04-28-11-51-38;6,0;12,0;-100;3,0;2,0;1,0;0,0;row;0,0;False;False;True;2,01600003242;False;1,00499987602
UWB1993w;game;2017-04-28-11-51-38;6,0;13,0;-100;3,0;1,0;2,0;0,0;row;0,0;False;False;True;1,25;False;1,20299983025
UWB1993w;game;2017-04-28-11-51-38;6,0;14,0;-100;3,0;2,0;0,0;1,0;row;0,0;True;False;False;2,01699995995;False;1,23299980164
UWB1993w;game;2017-04-28-11-51-38;6,0;15,0;-100;3,0;2,0;0,0;1,0;row;1,0;True;False;True;1,48399996758;True;1,23000001907
UWB1993w;game;2017-04-28-11-51-38;6,0;16,0;-100;1,0;0,0;3,0;2,0;column;0,0;True;True;True;1,382999897;True;0,901000022888
UWB1993w;game;2017-04-28-11-51-38;6,0;17,0;-100;3,0;2,0;0,0;1,0;row;0,0;False;False;True;1,34999990463;False;1,06200003624
UWB1993w;game;2017-04-28-11-51-38;6,0;18,0;-100;3,0;0,0;2,0;1,0;column;1,0;True;True;True;1,21700000763;True;1,30300021172
UWB1993w;game;2017-04-28-11-51-38;6,0;19,0;-100;2,0;3,0;1,0;0,0;column;0,0;False;True;False;1,65000009537;True;0,768000125885
UWB1993w;game;2017-04-28-11-51-38;6,0;20,0;-100;1,0;3,0;0,0;2,0;row;0,0;False;True;True;0,917000055313;False;1,36500000954
UWB1993w;game;2017-04-28-11-51-38;6,0;21,0;-100;2,0;3,0;1,0;0,0;column;1,0;True;True;False;1,25;False;1,10000014305
UWB1993w;game;2017-04-28-11-51-38;6,0;22,0;-100;3,0;1,0;2,0;0,0;column;1,0;True;False;True;0,985000133514;True;1,0649998188
UWB1993w;game;2017-04-28-11-51-38;6,0;23,0;-100;1,0;3,0;2,0;0,0;column;1,0;True;False;True;0,25;True;1,25699996948
UWB1993w;game;2017-04-28-11-51-38;6,0;24,0;-100;1,0;0,0;3,0;2,0;row;0,0;True;False;True;0,75;True;0,696000099182
UWB1993w;game;2017-04-28-11-51-38;6,0;25,0;-100;2,0;1,0;0,0;3,0;row;0,0;True;False;False;1,40399980545;False;1,0720000267
UWB1993w;game;2017-04-28-11-51-38;6,0;26,0;-100;1,0;3,0;0,0;2,0;row;1,0;False;False;True;0,882999897003;False;1,45599985123
UWB1993w;game;2017-04-28-11-51-38;6,0;27,0;-100;3,0;0,0;1,0;2,0;row;1,0;True;True;True;1,04999995232;True;0,930999994278
UWB1993w;game;2017-04-28-11-51-38;6,0;28,0;-100;3,0;2,0;0,0;1,0;column;1,0;False;True;True;1,31700015068;False;0,840000152588
UWB1993w;game;2017-04-28-11-51-38;6,0;29,0;-100;0,0;2,0;1,0;3,0;column;0,0;True;True;True;1,04999995232;True;0,599999904633
UWB1993w;game;2017-04-28-11-51-38;6,0;30,0;-100;2,0;3,0;0,0;1,0;row;1,0;False;False;True;1,117000103;False;1,30200004578
UWB1993w;game;2017-04-28-11-51-38;6,0;31,0;-100;3,0;1,0;2,0;0,0;row;0,0;True;False;True;0,852999925613;True;0,797999858856
UWB1993w;game;2017-04-28-11-51-38;6,0;32,0;-100;2,0;3,0;1,0;0,0;row;0,0;True;True;False;1,35000014305;False;1,02800011635
UWB1993w;game;2017-04-28-11-51-38;6,0;33,0;-100;1,0;3,0;0,0;2,0;row;0,0;True;True;True;0,782999992371;True;1,39899992943
UWB1993w;game;2017-04-28-11-51-38;6,0;34,0;-100;3,0;1,0;0,0;2,0;row;0,0;True;True;True;1,28299999237;True;1,10299992561
UWB1993w;game;2017-04-28-11-51-38;6,0;35,0;-100;1,0;3,0;0,0;2,0;column;0,0;False;False;True;0,916999816895;False;0,668000221252
UWB1993w;game;2017-04-28-11-51-38;6,0;36,0;-100;2,0;3,0;1,0;0,0;row;1,0;True;True;True;1,08500003815;True;0,632999897003
UWB1993w;game;2017-04-28-11-51-38;6,0;37,0;-100;3,0;0,0;1,0;2,0;column;1,0;True;True;False;1,38199996948;False;0,601999998093
UWB1993w;game;2017-04-28-11-51-38;6,0;38,0;-100;3,0;1,0;2,0;0,0;column;1,0;False;True;False;1,382999897;True;0,732000112534
UWB1993w;game;2017-04-28-11-51-38;6,0;39,0;-100;3,0;2,0;1,0;0,0;column;1,0;True;True;True;1,08300018311;True;0,826000213623
UWB1993w;game;2017-04-28-11-51-38;6,0;40,0;-100;2,0;0,0;1,0;3,0;column;0,0;False;True;False;1,25499987602;True;1,42900013924
UWB1993w;game;2017-04-28-11-51-38;6,0;41,0;-100;2,0;1,0;3,0;0,0;column;0,0;False;True;True;0,949999809265;False;1,33999991417
UWB1993w;game;2017-04-28-11-51-38;6,0;42,0;-100;1,0;2,0;0,0;3,0;row;1,0;True;True;True;1,08299994469;True;1,23000001907
UWB1993w;game;2017-04-28-11-51-38;6,0;43,0;-100;0,0;2,0;3,0;1,0;row;0,0;False;True;False;1,28399991989;True;0,739000082016
UWB1993w;game;2017-04-28-11-51-38;6,0;44,0;-100;3,0;1,0;0,0;2,0;column;1,0;True;True;True;0,950000047684;True;1,50300002098
UWB1993w;game;2017-04-28-11-51-38;6,0;45,0;-100;0,0;2,0;1,0;3,0;column;0,0;False;True;False;1,21700000763;True;0,563999891281
UWB1993w;game;2017-04-28-11-51-38;6,0;46,0;-100;3,0;0,0;1,0;2,0;row;0,0;True;False;True;1,44799995422;True;0,68700003624
UWB1993w;game;2017-04-28-11-51-38;6,0;47,0;-100;3,0;0,0;1,0;2,0;column;0,0;True;False;True;1,28199982643;True;1,25600004196
UWB1993w;game;2017-04-28-11-51-38;6,0;48,0;-100;0,0;2,0;3,0;1,0;column;0,0;True;True;True;1,25099992752;True;0,900000095367
UWB1993w;game;2017-04-28-11-51-38;7,0;1,0;-100;3,0;1,0;2,0;0,0;row;1,0;True;False;True;0,782999992371;True;1,12599992752
UWB1993w;game;2017-04-28-11-51-38;7,0;2,0;-100;2,0;0,0;3,0;1,0;row;1,0;True;True;True;0,983999967575;True;0,707999944687
UWB1993w;game;2017-04-28-11-51-38;7,0;3,0;-100;2,0;1,0;0,0;3,0;row;0,0;False;False;True;1,38499999046;False;0,538000106812
UWB1993w;game;2017-04-28-11-51-38;7,0;4,0;-100;1,0;2,0;0,0;3,0;column;1,0;False;True;True;0,882999897003;False;1,2009999752
UWB1993w;game;2017-04-28-11-51-38;7,0;5,0;-100;1,0;2,0;0,0;3,0;row;1,0;False;False;True;0,916000127792;False;1,19299983978
UWB1993w;game;2017-04-28-11-51-38;7,0;6,0;-100;0,0;1,0;2,0;3,0;row;1,0;False;False;True;1,117000103;False;1,36899995804
UWB1993w;game;2017-04-28-11-51-38;7,0;7,0;-100;0,0;2,0;3,0;1,0;column;1,0;True;True;True;1,15000009537;True;0,766000032425
UWB1993w;game;2017-04-28-11-51-38;7,0;8,0;-100;3,0;2,0;0,0;1,0;row;1,0;False;True;False;1,34899997711;True;0,538000106812
UWB1993w;game;2017-04-28-11-51-38;7,0;9,0;-100;3,0;2,0;1,0;0,0;column;0,0;True;False;True;1,15100002289;True;0,600999832153
UWB1993w;game;2017-04-28-11-51-38;7,0;10,0;-100;3,0;2,0;0,0;1,0;column;0,0;False;True;False;1,42499995232;True;1,26600003242
UWB1993w;game;2017-04-28-11-51-38;7,0;11,0;-100;1,0;0,0;2,0;3,0;row;1,0;True;True;True;1,68400001526;True;0,536999940872
UWB1993w;game;2017-04-28-11-51-38;7,0;12,0;-100;3,0;1,0;0,0;2,0;row;1,0;True;False;True;1,88399982452;True;0,726999998093
UWB1993w;game;2017-04-28-11-51-38;7,0;13,0;-100;0,0;1,0;2,0;3,0;column;1,0;False;False;False;1,31700015068;True;0,996000051498
UWB1993w;game;2017-04-28-11-51-38;7,0;14,0;-100;1,0;3,0;0,0;2,0;column;1,0;False;True;True;1,48399996758;False;0,831000089645
UWB1993w;game;2017-04-28-11-51-38;7,0;15,0;-100;1,0;0,0;3,0;2,0;row;0,0;False;True;True;1,21600008011;False;1,10299992561
UWB1993w;game;2017-04-28-11-51-38;7,0;16,0;-100;0,0;2,0;3,0;1,0;row;1,0;False;False;False;2,04999995232;True;1,12799978256
UWB1993w;game;2017-04-28-11-51-38;7,0;17,0;-100;0,0;2,0;1,0;3,0;row;1,0;True;True;True;1,41799998283;True;1,16100001335
UWB1993w;game;2017-04-28-11-51-38;7,0;18,0;-100;3,0;2,0;0,0;1,0;column;1,0;True;False;True;1,55000019073;True;1,09200000763
UWB1993w;game;2017-04-28-11-51-38;7,0;19,0;-100;2,0;0,0;1,0;3,0;row;1,0;False;True;False;1,44900012016;True;0,796999931335
UWB1993w;game;2017-04-28-11-51-38;7,0;20,0;-100;0,0;1,0;3,0;2,0;column;1,0;False;False;False;1,35000014305;True;1,13800001144
UWB1993w;game;2017-04-28-11-51-38;7,0;21,0;-100;3,0;0,0;2,0;1,0;row;1,0;True;True;True;1,15000009537;True;1,43099999428
UWB1993w;game;2017-04-28-11-51-38;7,0;22,0;-100;1,0;0,0;2,0;3,0;column;0,0;True;True;False;1,18200016022;False;0,662999868393
UWB1993w;game;2017-04-28-11-51-38;7,0;23,0;-100;2,0;1,0;0,0;3,0;column;1,0;False;True;True;1,25;False;1,16499996185
UWB1993w;game;2017-04-28-11-51-38;7,0;24,0;-100;1,0;3,0;0,0;2,0;column;0,0;True;True;True;1,78199982643;True;1,0720000267
UWB1993w;game;2017-04-28-11-51-38;7,0;25,0;-100;1,0;0,0;2,0;3,0;row;0,0;True;False;True;1,28299999237;True;1,32899999619
UWB1993w;game;2017-04-28-11-51-38;7,0;26,0;-100;3,0;2,0;1,0;0,0;row;1,0;False;False;False;1,382999897;True;1,35800004005
UWB1993w;game;2017-04-28-11-51-38;7,0;27,0;-100;3,0;0,0;2,0;1,0;row;0,0;False;False;True;1,78299999237;False;0,569999933243
UWB1993w;game;2017-04-28-11-51-38;7,0;28,0;-100;3,0;0,0;2,0;1,0;column;0,0;True;False;True;1,1939997673;True;0,591000080109
UWB1993w;game;2017-04-28-11-51-38;7,0;29,0;-100;0,0;1,0;3,0;2,0;row;1,0;False;True;False;1,78299999237;True;0,703000068665
UWB1993w;game;2017-04-28-11-51-38;7,0;30,0;-100;2,0;1,0;3,0;0,0;row;1,0;True;False;True;1,31699991226;True;0,763999938965
UWB1993w;game;2017-04-28-11-51-38;7,0;31,0;-100;0,0;2,0;3,0;1,0;row;0,0;True;False;False;1,84999990463;False;0,802999973297
UWB1993w;game;2017-04-28-11-51-38;7,0;32,0;-100;1,0;2,0;3,0;0,0;column;0,0;True;True;True;1,24900007248;True;1,02300000191
UWB1993w;game;2017-04-28-11-51-38;7,0;33,0;-100;0,0;1,0;2,0;3,0;row;0,0;False;True;False;1,91799998283;True;1,22900009155
UWB1993w;game;2017-04-28-11-51-38;7,0;34,0;-100;0,0;1,0;3,0;2,0;row;1,0;True;True;False;1,382999897;False;1,43600010872
UWB1993w;game;2017-04-28-11-51-38;7,0;35,0;-100;2,0;1,0;3,0;0,0;column;1,0;False;True;False;1,35699987411;True;0,861000061035
UWB1993w;game;2017-04-28-11-51-38;7,0;36,0;-100;2,0;0,0;3,0;1,0;row;1,0;False;False;False;2,21700000763;True;0,999000072479
UWB1993w;game;2017-04-28-11-51-38;7,0;37,0;-100;1,0;2,0;0,0;3,0;column;1,0;True;False;False;1,45100021362;False;0,559000015259
UWB1993w;game;2017-04-28-11-51-38;7,0;38,0;-100;0,0;2,0;1,0;3,0;row;0,0;False;True;False;1,25;True;0,903000116348
UWB1993w;game;2017-04-28-11-51-38;7,0;39,0;-100;0,0;3,0;1,0;2,0;row;0,0;True;True;True;1,21200013161;True;1,27200007439
UWB1993w;game;2017-04-28-11-51-38;7,0;40,0;-100;1,0;3,0;2,0;0,0;row;0,0;True;False;True;1,08299994469;True;0,835000038147
UWB1993w;game;2017-04-28-11-51-38;7,0;41,0;-100;0,0;3,0;1,0;2,0;column;0,0;False;True;False;1,21700000763;True;0,668999910355
UWB1993w;game;2017-04-28-11-51-38;7,0;42,0;-100;1,0;2,0;3,0;0,0;row;1,0;True;True;False;1,28299999237;False;0,765000104904
UWB1993w;game;2017-04-28-11-51-38;7,0;43,0;-100;0,0;2,0;1,0;3,0;column;1,0;True;True;True;1,28400015831;True;1,40199995041
UWB1993w;game;2017-04-28-11-51-38;7,0;44,0;-100;1,0;3,0;2,0;0,0;row;1,0;False;False;False;1,11599993706;True;1,03299999237
UWB1993w;game;2017-04-28-11-51-38;7,0;45,0;-100;1,0;0,0;2,0;3,0;column;1,0;True;True;True;1,35000014305;True;0,509000062943
UWB1993w;game;2017-04-28-11-51-38;7,0;46,0;-100;1,0;3,0;0,0;2,0;row;1,0;True;True;False;1,08300018311;False;0,890000104904
UWB1993w;game;2017-04-28-11-51-38;7,0;47,0;-100;0,0;1,0;2,0;3,0;column;1,0;True;True;False;1,32899999619;False;1,06700015068
UWB1993w;game;2017-04-28-11-51-38;7,0;48,0;-100;0,0;1,0;2,0;3,0;row;0,0;True;False;False;1,44899988174;False;1,36599993706
UWB1993w;game;2017-04-28-11-51-38;8,0;1,0;1000;1,0;2,0;0,0;3,0;column;1,0;False;True;True;0,832999944687;False;1,00699996948
UWB1993w;game;2017-04-28-11-51-38;8,0;2,0;1000;1,0;2,0;3,0;0,0;row;0,0;False;False;False;1,132999897;True;0,766000032425
UWB1993w;game;2017-04-28-11-51-38;8,0;3,0;1000;2,0;1,0;0,0;3,0;row;1,0;True;False;False;1,09999990463;False;0,924000024796
UWB1993w;game;2017-04-28-11-51-38;8,0;4,0;1000;2,0;0,0;1,0;3,0;column;1,0;False;True;False;1,20000004768;True;1,0680000782
UWB1993w;game;2017-04-28-11-51-38;8,0;5,0;1000;1,0;0,0;2,0;3,0;row;1,0;True;True;True;0,945000171661;True;0,796000003815
UWB1993w;game;2017-04-28-11-51-38;8,0;6,0;1000;0,0;2,0;1,0;3,0;row;0,0;True;True;True;1,26699995995;True;1,42599987984
UWB1993w;game;2017-04-28-11-51-38;8,0;7,0;1000;2,0;0,0;3,0;1,0;column;0,0;True;False;True;1,29899978638;True;0,733000040054
UWB1993w;game;2017-04-28-11-51-38;8,0;8,0;1000;0,0;2,0;3,0;1,0;row;1,0;True;False;False;1,16700005531;False;0,571999788284
UWB1993w;game;2017-04-28-11-51-38;8,0;9,0;1000;2,0;0,0;3,0;1,0;column;1,0;False;False;False;1,06500005722;True;0,931999921799
UWB1993w;game;2017-04-28-11-51-38;8,0;10,0;1000;0,0;2,0;1,0;3,0;row;0,0;False;False;False;1,16600012779;True;0,787999868393
UWB1993w;game;2017-04-28-11-51-38;8,0;11,0;1000;1,0;2,0;0,0;3,0;row;1,0;False;True;False;1,03099989891;True;1,43300008774
UWB1993w;game;2017-04-28-11-51-38;8,0;12,0;1000;0,0;1,0;3,0;2,0;column;1,0;True;False;False;1,7990000248;False;1,40300011635
UWB1993w;game;2017-04-28-11-51-38;8,0;13,0;1000;0,0;1,0;3,0;2,0;column;1,0;False;True;False;1,0;True;1,50599980354
UWB1993w;game;2017-04-28-11-51-38;8,0;14,0;1000;1,0;0,0;2,0;3,0;column;1,0;True;True;True;1,23300004005;True;0,799000024796
UWB1993w;game;2017-04-28-11-51-38;8,0;15,0;1000;0,0;2,0;3,0;1,0;row;0,0;False;False;False;1,20100021362;True;0,605999946594
UWB1993w;game;2017-04-28-11-51-38;8,0;16,0;1000;2,0;0,0;3,0;1,0;row;0,0;True;False;True;1,99900007248;True;0,858000040054
UWB1993w;game;2017-04-28-11-51-38;8,0;17,0;1000;3,0;0,0;1,0;2,0;row;0,0;True;False;False;1,63400006294;False;1,09600019455
UWB1993w;game;2017-04-28-11-51-38;8,0;18,0;1000;0,0;3,0;1,0;2,0;column;0,0;False;False;False;1,20000004768;True;0,655999898911
UWB1993w;game;2017-04-28-11-51-38;8,0;19,0;1000;2,0;3,0;0,0;1,0;column;0,0;False;True;True;1,56599998474;False;1,46499991417
UWB1993w;game;2017-04-28-11-51-38;8,0;20,0;1000;2,0;3,0;0,0;1,0;row;1,0;True;True;False;1,40000009537;False;0,760999917984
UWB1993w;game;2017-04-28-11-51-38;8,0;21,0;1000;3,0;2,0;0,0;1,0;column;1,0;True;True;True;1,20000004768;True;1,39200019836
UWB1993w;game;2017-04-28-11-51-38;8,0;22,0;1000;2,0;3,0;1,0;0,0;column;0,0;False;True;False;1,16599988937;True;0,865999937057
UWB1993w;game;2017-04-28-11-51-38;8,0;23,0;1000;1,0;2,0;3,0;0,0;row;0,0;True;False;True;1,43400001526;True;1,23599982262
UWB1993w;game;2017-04-28-11-51-38;8,0;24,0;1000;0,0;2,0;1,0;3,0;row;1,0;True;True;False;1,56299996376;False;0,732000112534
UWB1993w;game;2017-04-28-11-51-38;8,0;25,0;1000;3,0;0,0;2,0;1,0;row;1,0;True;True;True;2,23200011253;True;0,646000146866
UWB1993w;game;2017-04-28-11-51-38;8,0;26,0;1000;2,0;0,0;1,0;3,0;row;1,0;False;False;True;1,76799988747;False;1,39499998093
UWB1993w;game;2017-04-28-11-51-38;8,0;27,0;1000;2,0;0,0;3,0;1,0;row;1,0;True;False;False;1,70000004768;False;0,530999898911
UWB1993w;game;2017-04-28-11-51-38;8,0;28,0;1000;1,0;2,0;3,0;0,0;column;1,0;False;True;False;1,26699995995;True;1,16300010681
UWB1993w;game;2017-04-28-11-51-38;8,0;29,0;1000;3,0;1,0;0,0;2,0;column;0,0;False;True;True;1,632999897;False;0,795000076294
UWB1993w;game;2017-04-28-11-51-38;8,0;30,0;1000;2,0;3,0;1,0;0,0;column;1,0;False;True;False;1,7990000248;True;1,24000000954
UWB1993w;game;2017-04-28-11-51-38;8,0;31,0;1000;0,0;1,0;3,0;2,0;column;0,0;True;False;False;1,66600012779;False;1,23500013351
UWB1993w;game;2017-04-28-11-51-38;8,0;32,0;1000;0,0;3,0;2,0;1,0;row;0,0;False;False;False;2,03199982643;True;1,09299993515
UWB1993w;game;2017-04-28-11-51-38;8,0;33,0;1000;1,0;3,0;0,0;2,0;row;1,0;False;True;False;2,5;True;1,39199995995
UWB1993w;game;2017-04-28-11-51-38;8,0;34,0;1000;3,0;0,0;1,0;2,0;row;1,0;False;True;False;1,86599993706;True;1,29500007629
UWB1993w;game;2017-04-28-11-51-38;8,0;35,0;1000;2,0;0,0;3,0;1,0;column;1,0;True;True;True;2,86599993706;True;1,10299992561
UWB1993w;game;2017-04-28-11-51-38;8,0;36,0;1000;0,0;2,0;3,0;1,0;row;0,0;True;True;True;1,39999985695;True;1,20399999619
UWB1993w;game;2017-04-28-11-51-38;8,0;37,0;1000;3,0;1,0;0,0;2,0;column;0,0;True;False;False;1,83299994469;False;0,530999898911
UWB1993w;game;2017-04-28-11-51-38;8,0;38,0;1000;3,0;0,0;1,0;2,0;row;0,0;False;True;False;1,39899992943;True;0,898999929428
UWB1993w;game;2017-04-28-11-51-38;8,0;39,0;1000;3,0;1,0;2,0;0,0;column;1,0;True;True;False;1,09899997711;False;1,50199985504
UWB1993w;game;2017-04-28-11-51-38;8,0;40,0;1000;1,0;0,0;3,0;2,0;row;0,0;False;True;False;1,20000004768;True;0,853000164032
UWB1993w;game;2017-04-28-11-51-38;8,0;41,0;1000;3,0;2,0;1,0;0,0;row;1,0;False;True;False;1,09999990463;True;0,667000055313
UWB1993w;game;2017-04-28-11-51-38;8,0;42,0;1000;2,0;0,0;3,0;1,0;row;1,0;False;False;True;1,19999980927;False;1,13499999046
UWB1993w;game;2017-04-28-11-51-38;8,0;43,0;1000;1,0;3,0;2,0;0,0;row;0,0;True;True;False;1,30200004578;False;1,47300004959
UWB1993w;game;2017-04-28-11-51-38;8,0;44,0;1000;3,0;2,0;1,0;0,0;row;0,0;False;True;False;1,11199998856;True;1,4319999218
UWB1993w;game;2017-04-28-11-51-38;8,0;45,0;1000;3,0;1,0;2,0;0,0;row;1,0;True;False;False;1,03300023079;False;1,36500000954
UWB1993w;game;2017-04-28-11-51-38;8,0;46,0;1000;2,0;1,0;3,0;0,0;row;0,0;False;False;True;1,29999995232;False;0,941999912262
UWB1993w;game;2017-04-28-11-51-38;8,0;47,0;1000;2,0;0,0;1,0;3,0;column;1,0;True;True;True;1,7990000248;True;1,22600007057
UWB1993w;game;2017-04-28-11-51-38;8,0;48,0;1000;3,0;0,0;1,0;2,0;column;1,0;False;True;False;1,43300008774;True;1,05900001526
UWB1993w;game;2017-04-28-11-51-38;9,0;1,0;100;1,0;3,0;2,0;0,0;column;1,0;True;False;True;1,16599988937;True;1,39300012589
UWB1993w;game;2017-04-28-11-51-38;9,0;2,0;100;0,0;2,0;3,0;1,0;column;0,0;False;True;True;0,932999849319;False;1,19299983978
UWB1993w;game;2017-04-28-11-51-38;9,0;3,0;100;2,0;3,0;1,0;0,0;column;0,0;True;False;True;0,96799993515;True;0,56500005722
UWB1993w;game;2017-04-28-11-51-38;9,0;4,0;100;2,0;3,0;1,0;0,0;column;0,0;False;False;False;1,40100002289;True;0,930999994278
UWB1993w;game;2017-04-28-11-51-38;9,0;5,0;100;1,0;3,0;0,0;2,0;row;0,0;False;False;False;1,53299999237;True;1,3029999733
UWB1993w;game;2017-04-28-11-51-38;9,0;6,0;100;1,0;3,0;0,0;2,0;row;0,0;True;True;True;1,96700000763;True;1,15899991989
UWB1993w;game;2017-04-28-11-51-38;9,0;7,0;100;0,0;1,0;2,0;3,0;column;1,0;False;True;True;1,76600003242;False;0,539000034332
UWB1993w;game;2017-04-28-11-51-38;9,0;8,0;100;0,0;1,0;2,0;3,0;column;0,0;True;False;True;1,26700019836;True;0,664999961853
UWB1993w;game;2017-04-28-11-51-38;9,0;9,0;100;2,0;0,0;3,0;1,0;row;0,0;True;True;True;2,33299994469;True;0,768000125885
UWB1993w;game;2017-04-28-11-51-38;9,0;10,0;100;0,0;1,0;2,0;3,0;row;0,0;True;True;False;1,40000009537;False;1,46700000763
UWB1993w;game;2017-04-28-11-51-38;9,0;11,0;100;1,0;2,0;3,0;0,0;column;1,0;False;True;False;1,79999995232;True;0,733000040054
UWB1993w;game;2017-04-28-11-51-38;9,0;12,0;100;0,0;1,0;3,0;2,0;row;1,0;True;True;False;1,16600012779;False;1,43200016022
UWB1993w;game;2017-04-28-11-51-38;9,0;13,0;100;2,0;0,0;3,0;1,0;row;1,0;True;True;True;1,03300023079;True;1,16999983788
UWB1993w;game;2017-04-28-11-51-38;9,0;14,0;100;0,0;1,0;3,0;2,0;row;1,0;False;True;False;1,23399996758;True;1,03500008583
UWB1993w;game;2017-04-28-11-51-38;9,0;15,0;100;0,0;2,0;1,0;3,0;column;0,0;False;False;False;1,10099983215;True;1,43600010872
UWB1993w;game;2017-04-28-11-51-38;9,0;16,0;100;2,0;3,0;0,0;1,0;column;0,0;False;False;False;1,0;True;0,566999912262
UWB1993w;game;2017-04-28-11-51-38;9,0;17,0;100;2,0;1,0;3,0;0,0;column;0,0;False;False;False;1,23399996758;True;1,33099985123
UWB1993w;game;2017-04-28-11-51-38;9,0;18,0;100;1,0;0,0;2,0;3,0;row;0,0;False;False;False;0,867000102997;True;1,12299990654
UWB1993w;game;2017-04-28-11-51-38;9,0;19,0;100;3,0;1,0;0,0;2,0;column;0,0;False;False;True;1,13399982452;False;1,45600008965
UWB1993w;game;2017-04-28-11-51-38;9,0;20,0;100;2,0;3,0;1,0;0,0;row;0,0;True;False;False;1,46700000763;False;0,757999897003
UWB1993w;game;2017-04-28-11-51-38;9,0;21,0;100;3,0;1,0;2,0;0,0;column;1,0;True;True;True;1,29999995232;True;0,731999874115
UWB1993w;game;2017-04-28-11-51-38;9,0;22,0;100;2,0;1,0;0,0;3,0;row;0,0;True;False;False;2,43299984932;False;0,536000013351
UWB1993w;game;2017-04-28-11-51-38;9,0;23,0;100;1,0;0,0;2,0;3,0;row;1,0;False;True;False;1,23300004005;True;1,5
UWB1993w;game;2017-04-28-11-51-38;9,0;24,0;100;1,0;3,0;2,0;0,0;row;1,0;False;True;False;1,53299999237;True;1,10199999809
UWB1993w;game;2017-04-28-11-51-38;9,0;25,0;100;2,0;0,0;1,0;3,0;column;0,0;False;True;False;1,73399996758;True;0,768999814987
UWB1993w;game;2017-04-28-11-51-38;9,0;26,0;100;0,0;2,0;3,0;1,0;row;0,0;False;True;False;1,83399987221;True;1,26999998093
UWB1993w;game;2017-04-28-11-51-38;9,0;27,0;100;1,0;0,0;3,0;2,0;row;0,0;False;True;True;1,49900007248;False;0,563999891281
UWB1993w;game;2017-04-28-11-51-38;9,0;28,0;100;2,0;1,0;3,0;0,0;row;0,0;False;False;False;2,0;True;1,46899986267
UWB1993w;game;2017-04-28-11-51-38;9,0;29,0;100;1,0;2,0;3,0;0,0;column;0,0;False;True;False;2,53299999237;True;0,601000070572
UWB1993w;game;2017-04-28-11-51-38;9,0;30,0;100;2,0;3,0;0,0;1,0;row;0,0;True;False;False;2,03299999237;False;1,16899991035
UWB1993w;game;2017-04-28-11-51-38;9,0;31,0;100;3,0;1,0;0,0;2,0;row;1,0;False;True;True;1,96700000763;False;1,19799995422
UWB1993w;game;2017-04-28-11-51-38;9,0;32,0;100;0,0;3,0;1,0;2,0;column;0,0;True;True;True;1,66699981689;True;1,49699997902
UWB1993w;game;2017-04-28-11-51-38;9,0;33,0;100;0,0;2,0;3,0;1,0;row;1,0;True;False;True;1,29999995232;True;0,800000190735
UWB1993w;game;2017-04-28-11-51-38;9,0;34,0;100;0,0;2,0;3,0;1,0;row;1,0;False;True;True;1,63599991798;False;1,15899991989
UWB1993w;game;2017-04-28-11-51-38;9,0;35,0;100;0,0;2,0;1,0;3,0;row;1,0;True;False;False;1,66700005531;False;1,39100003242
UWB1993w;game;2017-04-28-11-51-38;9,0;36,0;100;2,0;3,0;0,0;1,0;row;1,0;False;False;True;1,83299994469;False;1,49899983406
UWB1993w;game;2017-04-28-11-51-38;9,0;37,0;100;1,0;0,0;2,0;3,0;row;0,0;True;False;True;1,0;True;1,40400004387
UWB1993w;game;2017-04-28-11-51-38;9,0;38,0;100;0,0;2,0;3,0;1,0;column;1,0;False;False;True;1,19999980927;False;0,536000013351
UWB1993w;game;2017-04-28-11-51-38;9,0;39,0;100;1,0;3,0;2,0;0,0;row;0,0;False;True;True;1,00199985504;False;0,625
UWB1993w;game;2017-04-28-11-51-38;9,0;40,0;100;3,0;0,0;2,0;1,0;row;0,0;True;True;True;1,0;True;1,26700019836
UWB1993w;game;2017-04-28-11-51-38;9,0;41,0;100;0,0;3,0;2,0;1,0;row;1,0;True;False;True;1,03200006485;True;1,36699986458
UWB1993w;game;2017-04-28-11-51-38;9,0;42,0;100;2,0;3,0;0,0;1,0;column;0,0;True;False;True;1,0;True;1,46900010109
UWB1993w;game;2017-04-28-11-51-38;9,0;43,0;100;2,0;3,0;0,0;1,0;row;0,0;False;False;False;1,09999990463;True;1,07799983025
UWB1993w;game;2017-04-28-11-51-38;9,0;44,0;100;0,0;1,0;2,0;3,0;row;0,0;False;False;False;1,132999897;True;1,27399992943
UWB1993w;game;2017-04-28-11-51-38;9,0;45,0;100;3,0;2,0;0,0;1,0;column;0,0;False;True;True;1,16600012779;False;1,46600008011
UWB1993w;game;2017-04-28-11-51-38;9,0;46,0;100;1,0;3,0;2,0;0,0;row;1,0;True;False;False;1,06699991226;False;0,906999826431
UWB1993w;game;2017-04-28-11-51-38;9,0;47,0;100;1,0;2,0;3,0;0,0;row;1,0;True;False;False;1,53399991989;False;1,33099985123
UWB1993w;game;2017-04-28-11-51-38;9,0;48,0;100;3,0;2,0;0,0;1,0;row;0,0;True;True;True;1,0;True;1,46700000763
UWB1993w;game;2017-04-28-11-51-38;10,0;1,0;-100;1,0;2,0;0,0;3,0;row;0,0;False;False;True;1,21599984169;False;0,800000190735
UWB1993w;game;2017-04-28-11-51-38;10,0;2,0;-100;2,0;3,0;1,0;0,0;column;0,0;True;True;True;1,08099985123;True;1,5
UWB1993w;game;2017-04-28-11-51-38;10,0;3,0;-100;1,0;2,0;3,0;0,0;row;1,0;False;True;False;1,21499991417;True;0,59099984169
UWB1993w;game;2017-04-28-11-51-38;10,0;4,0;-100;1,0;3,0;0,0;2,0;column;1,0;True;True;True;1,01699995995;True;1,10199999809
UWB1993w;game;2017-04-28-11-51-38;10,0;5,0;-100;3,0;2,0;1,0;0,0;column;1,0;False;True;False;1,18299984932;True;1,09699988365
UWB1993w;game;2017-04-28-11-51-38;10,0;6,0;-100;1,0;3,0;2,0;0,0;column;1,0;False;False;True;1,01399993896;False;1,29800009727
UWB1993w;game;2017-04-28-11-51-38;10,0;7,0;-100;3,0;0,0;1,0;2,0;row;1,0;False;False;True;1,38199996948;False;0,799999952316
UWB1993w;game;2017-04-28-11-51-38;10,0;8,0;-100;0,0;1,0;3,0;2,0;column;1,0;True;True;True;0,950000047684;True;0,930000066757
UWB1993w;game;2017-04-28-11-51-38;10,0;9,0;-100;2,0;1,0;0,0;3,0;row;1,0;True;False;False;1,54899978638;False;0,533999919891
UWB1993w;game;2017-04-28-11-51-38;10,0;10,0;-100;0,0;2,0;3,0;1,0;row;1,0;True;True;True;1,12599992752;True;0,531999826431
UWB1993w;game;2017-04-28-11-51-38;10,0;11,0;-100;2,0;1,0;3,0;0,0;column;1,0;True;True;False;1,25;False;1,0680000782
UWB1993w;game;2017-04-28-11-51-38;10,0;12,0;-100;3,0;1,0;2,0;0,0;column;0,0;True;False;True;0,949999809265;True;0,867000102997
UWB1993w;game;2017-04-28-11-51-38;10,0;13,0;-100;2,0;0,0;1,0;3,0;row;1,0;True;True;True;1,05099987984;True;0,529000043869
UWB1993w;game;2017-04-28-11-51-38;10,0;14,0;-100;2,0;3,0;0,0;1,0;column;0,0;False;False;False;1,28400015831;True;0,906000137329
UWB1993w;game;2017-04-28-11-51-38;10,0;15,0;-100;3,0;2,0;1,0;0,0;row;0,0;True;True;True;1,1819999218;True;0,928999900818
UWB1993w;game;2017-04-28-11-51-38;10,0;16,0;-100;1,0;0,0;3,0;2,0;column;0,0;False;True;False;1,11699986458;True;0,898000001907
UWB1993w;game;2017-04-28-11-51-38;10,0;17,0;-100;2,0;1,0;3,0;0,0;row;0,0;False;False;False;1,61900019646;True;0,756999969482
UWB1993w;game;2017-04-28-11-51-38;10,0;18,0;-100;1,0;2,0;3,0;0,0;row;0,0;True;True;False;1,117000103;False;0,96799993515
UWB1993w;game;2017-04-28-11-51-38;10,0;19,0;-100;2,0;3,0;0,0;1,0;column;1,0;False;False;False;1,117000103;True;0,625999927521
UWB1993w;game;2017-04-28-11-51-38;10,0;20,0;-100;0,0;3,0;1,0;2,0;row;1,0;True;True;False;1,11699986458;False;0,700999975204
UWB1993w;game;2017-04-28-11-51-38;10,0;21,0;-100;1,0;3,0;2,0;0,0;row;1,0;True;True;False;1,22200012207;False;1,03299999237
UWB1993w;game;2017-04-28-11-51-38;10,0;22,0;-100;2,0;0,0;3,0;1,0;column;1,0;True;False;True;0,816999912262;True;1,26699995995
UWB1993w;game;2017-04-28-11-51-38;10,0;23,0;-100;1,0;0,0;2,0;3,0;column;1,0;False;True;False;1,14800000191;True;1,49300003052
UWB1993w;game;2017-04-28-11-51-38;10,0;24,0;-100;2,0;3,0;0,0;1,0;row;1,0;True;False;True;1,41499996185;True;1,26699995995
UWB1993w;game;2017-04-28-11-51-38;10,0;25,0;-100;2,0;3,0;0,0;1,0;column;1,0;True;True;True;0,850999832153;True;0,803000211716
UWB1993w;game;2017-04-28-11-51-38;10,0;26,0;-100;3,0;2,0;1,0;0,0;column;0,0;False;False;True;1,21700000763;False;1,43799996376
UWB1993w;game;2017-04-28-11-51-38;10,0;27,0;-100;0,0;1,0;3,0;2,0;column;0,0;False;True;False;0,816999912262;True;1,12999987602
UWB1993w;game;2017-04-28-11-51-38;10,0;28,0;-100;1,0;0,0;2,0;3,0;column;0,0;False;False;False;0,849999904633;True;1,19400000572
UWB1993w;game;2017-04-28-11-51-38;10,0;29,0;-100;1,0;0,0;2,0;3,0;row;1,0;False;False;True;0,815999984741;False;0,777000188828
UWB1993w;game;2017-04-28-11-51-38;10,0;30,0;-100;0,0;3,0;2,0;1,0;row;0,0;False;False;False;1,05099987984;True;0,832000017166
UWB1993w;game;2017-04-28-11-51-38;10,0;31,0;-100;1,0;0,0;3,0;2,0;row;1,0;False;True;True;0,717000007629;False;0,731999874115
UWB1993w;game;2017-04-28-11-51-38;10,0;32,0;-100;2,0;0,0;1,0;3,0;row;0,0;True;False;False;0,782999992371;False;0,893000125885
UWB1993w;game;2017-04-28-11-51-38;10,0;33,0;-100;2,0;1,0;0,0;3,0;column;0,0;False;True;True;0,923000097275;False;1,50199985504
UWB1993w;game;2017-04-28-11-51-38;10,0;34,0;-100;1,0;3,0;2,0;0,0;row;0,0;False;True;True;1,31699991226;False;1,45999979973
UWB1993w;game;2017-04-28-11-51-38;10,0;35,0;-100;2,0;3,0;1,0;0,0;column;1,0;False;True;True;1,117000103;False;1,29299998283
UWB1993w;game;2017-04-28-11-51-38;10,0;36,0;-100;3,0;0,0;2,0;1,0;row;0,0;True;False;True;1,08299994469;True;0,731999874115
UWB1993w;game;2017-04-28-11-51-38;10,0;37,0;-100;2,0;1,0;0,0;3,0;column;1,0;True;False;False;1,45000004768;False;0,9359998703
UWB1993w;game;2017-04-28-11-51-38;10,0;38,0;-100;2,0;1,0;0,0;3,0;column;0,0;True;False;True;0,950999975204;True;0,803999900818
UWB1993w;game;2017-04-28-11-51-38;10,0;39,0;-100;0,0;3,0;1,0;2,0;column;0,0;True;False;True;0,916000127792;True;0,862999916077
UWB1993w;game;2017-04-28-11-51-38;10,0;40,0;-100;2,0;3,0;0,0;1,0;column;0,0;True;False;True;0,84900021553;True;0,929000139236
UWB1993w;game;2017-04-28-11-51-38;10,0;41,0;-100;0,0;1,0;3,0;2,0;row;0,0;False;False;False;1,08200001717;True;1,16799998283
UWB1993w;game;2017-04-28-11-51-38;10,0;42,0;-100;3,0;0,0;2,0;1,0;column;1,0;False;False;True;1,0490000248;False;1,3639998436
UWB1993w;game;2017-04-28-11-51-38;10,0;43,0;-100;2,0;3,0;0,0;1,0;row;0,0;True;True;False;0,916000127792;False;1,40100002289
UWB1993w;game;2017-04-28-11-51-38;10,0;44,0;-100;2,0;1,0;3,0;0,0;row;0,0;True;True;True;1,08299994469;True;0,890999794006
UWB1993w;game;2017-04-28-11-51-38;10,0;45,0;-100;2,0;3,0;0,0;1,0;row;0,0;False;True;False;1,21599984169;True;1,36800003052
UWB1993w;game;2017-04-28-11-51-38;10,0;46,0;-100;2,0;3,0;1,0;0,0;row;0,0;False;True;False;2,01399993896;True;0,859999895096
UWB1993w;game;2017-04-28-11-51-38;10,0;47,0;-100;2,0;1,0;3,0;0,0;column;0,0;True;False;False;1,71499991417;False;0,728999853134
UWB1993w;game;2017-04-28-11-51-38;10,0;48,0;-100;3,0;0,0;2,0;1,0;row;1,0;False;True;False;1,1819999218;True;1,32500004768
UWB1993w;game;2017-04-28-11-51-38;11,0;1,0;100;2,0;3,0;1,0;0,0;column;1,0;False;True;True;0,967000007629;False;0,950000047684
UWB1993w;game;2017-04-28-11-51-38;11,0;2,0;100;1,0;3,0;0,0;2,0;column;0,0;False;True;True;0,898000001907;False;0,598999977112
UWB1993w;game;2017-04-28-11-51-38;11,0;3,0;100;0,0;1,0;3,0;2,0;column;0,0;True;False;True;0,898000001907;True;0,537000179291
UWB1993w;game;2017-04-28-11-51-38;11,0;4,0;100;3,0;0,0;1,0;2,0;row;1,0;False;False;True;1,36699986458;False;0,968999862671
UWB1993w;game;2017-04-28-11-51-38;11,0;5,0;100;2,0;1,0;0,0;3,0;row;1,0;False;True;False;1,5;True;0,598999977112
UWB1993w;game;2017-04-28-11-51-38;11,0;6,0;100;1,0;3,0;2,0;0,0;column;1,0;False;False;True;1,132999897;False;0,934000015259
UWB1993w;game;2017-04-28-11-51-38;11,0;7,0;100;2,0;0,0;3,0;1,0;row;1,0;False;False;False;1,23300004005;True;0,923999786377
UWB1993w;game;2017-04-28-11-51-38;11,0;8,0;100;0,0;3,0;2,0;1,0;column;0,0;False;True;True;1,40100002289;False;0,532999992371
UWB1993w;game;2017-04-28-11-51-38;11,0;9,0;100;0,0;3,0;2,0;1,0;column;1,0;False;False;True;1,03299999237;False;0,65700006485
UWB1993w;game;2017-04-28-11-51-38;11,0;10,0;100;2,0;0,0;1,0;3,0;row;1,0;False;False;False;1,73200011253;True;1,13199996948
UWB1993w;game;2017-04-28-11-51-38;11,0;11,0;100;1,0;2,0;0,0;3,0;row;1,0;False;False;False;1,26700019836;True;0,760999917984
UWB1993w;game;2017-04-28-11-51-38;11,0;12,0;100;1,0;3,0;0,0;2,0;column;1,0;True;False;False;1,00099992752;False;0,868000030518
UWB1993w;game;2017-04-28-11-51-38;11,0;13,0;100;0,0;3,0;1,0;2,0;column;1,0;True;True;True;0,899999856949;True;1,33200001717
UWB1993w;game;2017-04-28-11-51-38;11,0;14,0;100;3,0;0,0;2,0;1,0;column;0,0;True;True;True;1,33299994469;True;0,638999938965
UWB1993w;game;2017-04-28-11-51-38;11,0;15,0;100;2,0;0,0;1,0;3,0;row;0,0;True;False;False;1,70000004768;False;1,22699999809
UWB1993w;game;2017-04-28-11-51-38;11,0;16,0;100;3,0;2,0;1,0;0,0;row;0,0;False;False;False;1,7990000248;True;0,743000030518
UWB1993w;game;2017-04-28-11-51-38;11,0;17,0;100;2,0;0,0;1,0;3,0;column;1,0;True;False;True;1,06700015068;True;1,0680000782
UWB1993w;game;2017-04-28-11-51-38;11,0;18,0;100;3,0;0,0;1,0;2,0;row;0,0;True;False;False;1,20000004768;False;1,0
UWB1993w;game;2017-04-28-11-51-38;11,0;19,0;100;3,0;2,0;0,0;1,0;column;1,0;True;False;True;1,56599998474;True;0,736999988556
UWB1993w;game;2017-04-28-11-51-38;11,0;20,0;100;3,0;0,0;1,0;2,0;column;1,0;False;True;False;1,16800022125;True;0,800999879837
UWB1993w;game;2017-04-28-11-51-38;11,0;21,0;100;1,0;2,0;0,0;3,0;column;0,0;True;True;False;1,59999990463;False;0,696000099182
UWB1993w;game;2017-04-28-11-51-38;11,0;22,0;100;2,0;1,0;3,0;0,0;column;0,0;True;True;True;1,79999995232;True;0,522000074387
UWB1993w;game;2017-04-28-11-51-38;11,0;23,0;100;1,0;2,0;3,0;0,0;column;1,0;True;False;True;1,56599998474;True;1,00300002098
UWB1993w;game;2017-04-28-11-51-38;11,0;24,0;100;0,0;3,0;2,0;1,0;column;0,0;True;True;True;0,966999769211;True;1,12999987602
UWB1993w;game;2017-04-28-11-51-38;11,0;25,0;100;1,0;2,0;0,0;3,0;column;1,0;False;False;False;1,46500015259;True;1,3639998436
UWB1993w;game;2017-04-28-11-51-38;11,0;26,0;100;1,0;0,0;2,0;3,0;column;0,0;True;True;False;1,10000014305;False;1,16400003433
UWB1993w;game;2017-04-28-11-51-38;11,0;27,0;100;3,0;1,0;2,0;0,0;column;0,0;False;False;False;0,867000102997;True;1,29800009727
UWB1993w;game;2017-04-28-11-51-38;11,0;28,0;100;3,0;1,0;0,0;2,0;column;0,0;True;True;True;1,09999990463;True;1,09299993515
UWB1993w;game;2017-04-28-11-51-38;11,0;29,0;100;2,0;1,0;0,0;3,0;column;0,0;True;False;False;1,16499996185;False;1,51600003242
UWB1993w;game;2017-04-28-11-51-38;11,0;30,0;100;1,0;2,0;3,0;0,0;column;0,0;True;True;True;0,866999864578;True;0,561999797821
UWB1993w;game;2017-04-28-11-51-38;11,0;31,0;100;1,0;0,0;3,0;2,0;column;0,0;False;False;True;0,933000087738;False;0,871000051498
UWB1993w;game;2017-04-28-11-51-38;11,0;32,0;100;2,0;1,0;3,0;0,0;column;1,0;False;True;False;1,36599993706;True;1,03400015831
UWB1993w;game;2017-04-28-11-51-38;11,0;33,0;100;2,0;3,0;0,0;1,0;row;1,0;True;False;False;1,59999990463;False;1,50199985504
UWB1993w;game;2017-04-28-11-51-38;11,0;34,0;100;3,0;2,0;1,0;0,0;row;1,0;True;True;False;1,06699991226;False;1,03899979591
UWB1993w;game;2017-04-28-11-51-38;11,0;35,0;100;3,0;1,0;2,0;0,0;column;0,0;True;True;True;1,03400015831;True;0,867000102997
UWB1993w;game;2017-04-28-11-51-38;11,0;36,0;100;3,0;1,0;0,0;2,0;column;1,0;True;False;True;0,966000080109;True;0,688999891281
UWB1993w;game;2017-04-28-11-51-38;11,0;37,0;100;3,0;2,0;0,0;1,0;row;1,0;True;False;True;0,600000143051;True;1,22600007057
UWB1993w;game;2017-04-28-11-51-38;11,0;38,0;100;0,0;3,0;2,0;1,0;row;0,0;True;False;False;1,33300018311;False;1,06999993324
UWB1993w;game;2017-04-28-11-51-38;11,0;39,0;100;0,0;2,0;1,0;3,0;row;0,0;True;True;True;0,800999879837;True;1,20399999619
UWB1993w;game;2017-04-28-11-51-38;11,0;40,0;100;3,0;2,0;0,0;1,0;column;0,0;True;False;False;1,0;False;1,4319999218
UWB1993w;game;2017-04-28-11-51-38;11,0;41,0;100;2,0;0,0;3,0;1,0;column;1,0;False;True;True;0,865999937057;False;1,32499980927
UWB1993w;game;2017-04-28-11-51-38;11,0;42,0;100;2,0;1,0;3,0;0,0;row;0,0;True;False;True;0,766999959946;True;0,743000030518
UWB1993w;game;2017-04-28-11-51-38;11,0;43,0;100;0,0;1,0;3,0;2,0;row;0,0;False;False;True;0,831000089645;False;0,829999923706
UWB1993w;game;2017-04-28-11-51-38;11,0;44,0;100;2,0;3,0;1,0;0,0;row;1,0;True;True;False;0,899999856949;False;1,23699998856
UWB1993w;game;2017-04-28-11-51-38;11,0;45,0;100;2,0;3,0;1,0;0,0;row;0,0;False;False;True;0,833999872208;False;1,03299999237
UWB1993w;game;2017-04-28-11-51-38;11,0;46,0;100;3,0;2,0;1,0;0,0;row;0,0;True;True;True;0,866999864578;True;1,10100007057
UWB1993w;game;2017-04-28-11-51-38;11,0;47,0;100;3,0;0,0;1,0;2,0;row;1,0;True;False;True;0,799000024796;True;1,34899997711
UWB1993w;game;2017-04-28-11-51-38;11,0;48,0;100;0,0;3,0;2,0;1,0;row;0,0;False;False;True;1,09999990463;False;0,569000005722
UWB1993w;game;2017-04-28-11-51-38;12,0;1,0;1000;0,0;1,0;2,0;3,0;column;0,0;False;False;False;0,967000007629;True;1,03499984741
UWB1993w;game;2017-04-28-11-51-38;12,0;2,0;1000;1,0;0,0;2,0;3,0;row;0,0;False;False;False;1,40000009537;True;0,832999944687
UWB1993w;game;2017-04-28-11-51-38;12,0;3,0;1000;0,0;3,0;1,0;2,0;column;0,0;True;False;True;1,13399982452;True;0,726999998093
UWB1993w;game;2017-04-28-11-51-38;12,0;4,0;1000;3,0;2,0;0,0;1,0;column;1,0;False;False;True;2,632999897;False;1,2349998951
UWB1993w;game;2017-04-28-11-51-38;12,0;5,0;1000;1,0;2,0;0,0;3,0;column;0,0;False;True;False;2,66700005531;True;1,46499991417
UWB1993w;game;2017-04-28-11-51-38;12,0;6,0;1000;1,0;3,0;0,0;2,0;column;0,0;True;False;True;1,16600012779;True;1,5
UWB1993w;game;2017-04-28-11-51-38;12,0;7,0;1000;1,0;2,0;3,0;0,0;column;0,0;False;False;False;2,27900004387;True;0,828000068665
UWB1993w;game;2017-04-28-11-51-38;12,0;8,0;1000;3,0;1,0;2,0;0,0;column;0,0;False;False;False;1,66700005531;True;0,901999950409
UWB1993w;game;2017-04-28-11-51-38;12,0;9,0;1000;1,0;0,0;3,0;2,0;row;1,0;False;False;False;1,89999985695;True;1,27200007439
UWB1993w;game;2017-04-28-11-51-38;12,0;10,0;1000;3,0;2,0;1,0;0,0;column;0,0;True;True;True;0,967000007629;True;1,1400001049
UWB1993w;game;2017-04-28-11-51-38;12,0;11,0;1000;0,0;2,0;1,0;3,0;column;1,0;True;False;True;1,84299993515;True;1,50099992752
UWB1993w;game;2017-04-28-11-51-38;12,0;12,0;1000;2,0;1,0;0,0;3,0;column;1,0;False;False;True;3,56599998474;False;1,30100011826
UWB1993w;game;2017-04-28-11-51-38;12,0;13,0;1000;3,0;0,0;2,0;1,0;row;0,0;True;False;True;1,13300013542;True;0,90099978447
UWB1993w;game;2017-04-28-11-51-38;12,0;14,0;1000;1,0;2,0;3,0;0,0;column;1,0;True;True;True;2,93000006676;True;1,09999990463
UWB1993w;game;2017-04-28-11-51-38;12,0;15,0;1000;1,0;0,0;3,0;2,0;column;0,0;True;True;True;0,900000095367;True;1,49899983406
UWB1993w;game;2017-04-28-11-51-38;12,0;16,0;1000;0,0;1,0;2,0;3,0;row;1,0;True;True;False;2,13300013542;False;0,526999950409
UWB1993w;game;2017-04-28-11-51-38;12,0;17,0;1000;0,0;2,0;3,0;1,0;column;1,0;True;True;False;2,23200011253;False;0,733000040054
UWB1993w;game;2017-04-28-11-51-38;12,0;18,0;1000;1,0;2,0;0,0;3,0;row;1,0;True;False;True;1,0;True;1,48900008202
UWB1993w;game;2017-04-28-11-51-38;12,0;19,0;1000;2,0;1,0;3,0;0,0;row;1,0;False;False;True;1,53200006485;False;0,533999919891
UWB1993w;game;2017-04-28-11-51-38;12,0;20,0;1000;3,0;2,0;0,0;1,0;row;1,0;True;False;True;1,06599998474;True;0,598000049591
UWB1993w;game;2017-04-28-11-51-38;12,0;21,0;1000;3,0;0,0;2,0;1,0;column;1,0;False;False;True;1,60000014305;False;0,960000038147
UWB1993w;game;2017-04-28-11-51-38;12,0;22,0;1000;3,0;1,0;0,0;2,0;column;1,0;False;False;False;1,59899997711;True;0,563999891281
UWB1993w;game;2017-04-28-11-51-38;12,0;23,0;1000;3,0;2,0;1,0;0,0;row;0,0;True;True;False;1,63300013542;False;1,53100013733
UWB1993w;game;2017-04-28-11-51-38;12,0;24,0;1000;0,0;3,0;1,0;2,0;row;1,0;False;True;True;3,03299999237;False;1,49300003052
UWB1993w;game;2017-04-28-11-51-38;12,0;25,0;1000;0,0;3,0;1,0;2,0;row;0,0;True;False;True;1,66700005531;True;1,20300006866
UWB1993w;game;2017-04-28-11-51-38;12,0;26,0;1000;3,0;1,0;0,0;2,0;row;1,0;False;False;True;1,13300013542;False;1,45899987221
UWB1993w;game;2017-04-28-11-51-38;12,0;27,0;1000;1,0;3,0;0,0;2,0;row;0,0;False;True;False;1,66400003433;True;1,23900008202
UWB1993w;game;2017-04-28-11-51-38;12,0;28,0;1000;2,0;3,0;1,0;0,0;row;0,0;False;False;False;2,10099983215;True;1,09700012207
UWB1993w;game;2017-04-28-11-51-38;12,0;29,0;1000;1,0;3,0;0,0;2,0;column;1,0;True;True;False;1,86600017548;False;0,604000091553
UWB1993w;game;2017-04-28-11-51-38;12,0;30,0;1000;3,0;2,0;0,0;1,0;row;0,0;False;True;True;1,73300004005;False;1,06199979782
UWB1993w;game;2017-04-28-11-51-38;12,0;31,0;1000;0,0;3,0;2,0;1,0;row;1,0;True;False;True;1,13399982452;True;0,803999900818
UWB1993w;game;2017-04-28-11-51-38;12,0;32,0;1000;0,0;2,0;3,0;1,0;row;1,0;False;False;True;0,832999944687;False;1,13199996948
UWB1993w;game;2017-04-28-11-51-38;12,0;33,0;1000;2,0;1,0;3,0;0,0;row;1,0;True;True;False;1,10100007057;False;1,03400015831
UWB1993w;game;2017-04-28-11-51-38;12,0;34,0;1000;2,0;1,0;3,0;0,0;column;1,0;True;False;True;2,132999897;True;0,638999938965
UWB1993w;game;2017-04-28-11-51-38;12,0;35,0;1000;2,0;1,0;3,0;0,0;column;1,0;False;False;False;1,39899992943;True;1,35699987411
UWB1993w;game;2017-04-28-11-51-38;12,0;36,0;1000;3,0;1,0;2,0;0,0;row;0,0;True;True;False;1,46700000763;False;0,697000026703
UWB1993w;game;2017-04-28-11-51-38;12,0;37,0;1000;0,0;3,0;2,0;1,0;row;0,0;True;True;True;1,23300004005;True;0,996999979019
UWB1993w;game;2017-04-28-11-51-38;12,0;38,0;1000;2,0;0,0;1,0;3,0;row;1,0;True;True;True;1,56700015068;True;0,930999994278
UWB1993w;game;2017-04-28-11-51-38;12,0;39,0;1000;3,0;1,0;2,0;0,0;row;1,0;False;False;True;0,366000175476;False;1,19900012016
UWB1993w;game;2017-04-28-11-51-38;12,0;40,0;1000;0,0;3,0;1,0;2,0;column;1,0;True;True;True;1,06599998474;True;0,631999969482
UWB1993w;game;2017-04-28-11-51-38;12,0;41,0;1000;1,0;0,0;3,0;2,0;row;0,0;True;False;False;1,03299999237;False;0,994999885559
UWB1993w;game;2017-04-28-11-51-38;12,0;42,0;1000;0,0;3,0;1,0;2,0;column;1,0;False;False;True;1,66599988937;False;1,25900006294
UWB1993w;game;2017-04-28-11-51-38;12,0;43,0;1000;1,0;3,0;2,0;0,0;column;0,0;True;True;True;2,66499996185;True;1,49699997902
UWB1993w;game;2017-04-28-11-51-38;12,0;44,0;1000;2,0;0,0;1,0;3,0;row;0,0;True;True;True;2,46700000763;True;0,601000070572
UWB1993w;game;2017-04-28-11-51-38;12,0;45,0;1000;1,0;3,0;2,0;0,0;column;1,0;True;False;True;1,76499986649;True;1,39300012589
UWB1993w;game;2017-04-28-11-51-38;12,0;46,0;1000;1,0;2,0;0,0;3,0;column;0,0;True;False;True;1,76699995995;True;0,634999990463
UWB1993w;game;2017-04-28-11-51-38;12,0;47,0;1000;0,0;1,0;3,0;2,0;column;0,0;False;False;False;1,53400015831;True;1,02999997139
UWB1993w;game;2017-04-28-11-51-38;12,0;48,0;1000;3,0;1,0;0,0;2,0;row;0,0;False;False;False;3,03200006485;True;1,49599981308
