Observer;Condition;SessionID;Block;Trial;COA;Color0;Color1;Color2;Color3;Target;Which;Match;FlipComplimentary;Response;RT;Correct;OnsetDelay
VEH1985w;experiment;2017-01-26-09-19-31;1,0;1,0;-100;0,0;2,0;1,0;3,0;row;0,0;False;False;False;4,78299999237;True;0,90399980545
VEH1985w;experiment;2017-01-26-09-19-31;1,0;2,0;-100;0,0;1,0;3,0;2,0;row;0,0;False;False;False;1,31599998474;True;1,13800001144
VEH1985w;experiment;2017-01-26-09-19-31;1,0;3,0;-100;0,0;3,0;1,0;2,0;column;0,0;False;True;True;2,21600008011;False;0,967000007629
VEH1985w;experiment;2017-01-26-09-19-31;1,0;4,0;-100;3,0;2,0;0,0;1,0;column;0,0;True;False;False;1,0490000248;False;0,628000020981
VEH1985w;experiment;2017-01-26-09-19-31;1,0;5,0;-100;3,0;1,0;0,0;2,0;row;0,0;True;True;True;1,382999897;True;1,2959997654
VEH1985w;experiment;2017-01-26-09-19-31;1,0;6,0;-100;2,0;3,0;1,0;0,0;column;0,0;True;False;False;1,81699991226;False;0,796999931335
VEH1985w;experiment;2017-01-26-09-19-31;1,0;7,0;-100;3,0;1,0;2,0;0,0;column;1,0;True;False;True;2,11600017548;True;0,62299990654
VEH1985w;experiment;2017-01-26-09-19-31;1,0;8,0;-100;1,0;3,0;2,0;0,0;row;0,0;False;False;False;1,55000019073;True;0,661000013351
VEH1985w;experiment;2017-01-26-09-19-31;1,0;9,0;-100;2,0;0,0;3,0;1,0;row;1,0;False;False;True;1,94900012016;False;1,32800006866
VEH1985w;experiment;2017-01-26-09-19-31;1,0;10,0;-100;1,0;2,0;0,0;3,0;row;1,0;False;False;False;3,51499986649;True;1,03500008583
VEH1985w;experiment;2017-01-26-09-19-31;1,0;11,0;-100;0,0;3,0;2,0;1,0;column;1,0;True;True;True;1,51699995995;True;0,834000110626
VEH1985w;experiment;2017-01-26-09-19-31;1,0;12,0;-100;2,0;1,0;0,0;3,0;column;0,0;True;False;False;1,31700015068;False;0,733000040054
VEH1985w;experiment;2017-01-26-09-19-31;1,0;13,0;-100;1,0;2,0;3,0;0,0;column;1,0;False;False;False;1,25;True;0,901999950409
VEH1985w;experiment;2017-01-26-09-19-31;1,0;14,0;-100;3,0;0,0;1,0;2,0;row;0,0;False;False;False;1,01600003242;True;1,23300004005
VEH1985w;experiment;2017-01-26-09-19-31;1,0;15,0;-100;2,0;3,0;1,0;0,0;row;0,0;False;False;True;1,48200011253;False;1,26099991798
VEH1985w;experiment;2017-01-26-09-19-31;1,0;16,0;-100;3,0;0,0;1,0;2,0;column;0,0;False;False;False;1,21500015259;True;1,09899997711
VEH1985w;experiment;2017-01-26-09-19-31;1,0;17,0;-100;2,0;1,0;3,0;0,0;column;0,0;True;False;False;1,11699986458;False;1,02800011635
VEH1985w;experiment;2017-01-26-09-19-31;1,0;18,0;-100;1,0;0,0;3,0;2,0;row;0,0;True;True;False;0,883000135422;False;0,598999977112
VEH1985w;experiment;2017-01-26-09-19-31;1,0;19,0;-100;0,0;3,0;2,0;1,0;row;1,0;False;True;False;1,18300008774;True;1,10100007057
VEH1985w;experiment;2017-01-26-09-19-31;1,0;20,0;-100;1,0;0,0;2,0;3,0;column;1,0;True;False;True;1,05100011826;True;0,963000059128
VEH1985w;experiment;2017-01-26-09-19-31;1,0;21,0;-100;1,0;3,0;2,0;0,0;row;0,0;True;True;True;0,814999818802;True;0,768000125885
VEH1985w;experiment;2017-01-26-09-19-31;1,0;22,0;-100;3,0;2,0;1,0;0,0;column;1,0;False;True;False;1,05100011826;True;1,36199998856
VEH1985w;experiment;2017-01-26-09-19-31;1,0;23,0;-100;1,0;0,0;2,0;3,0;row;0,0;False;True;True;1,08299994469;False;0,699999809265
VEH1985w;experiment;2017-01-26-09-19-31;1,0;24,0;-100;1,0;3,0;0,0;2,0;row;1,0;True;False;False;1,01600003242;False;1,30400013924
VEH1985w;experiment;2017-01-26-09-19-31;1,0;25,0;-100;0,0;2,0;1,0;3,0;row;0,0;True;False;True;2,08399987221;True;1,16199994087
VEH1985w;experiment;2017-01-26-09-19-31;1,0;26,0;-100;2,0;0,0;1,0;3,0;column;1,0;True;True;True;0,75;True;1,26900005341
VEH1985w;experiment;2017-01-26-09-19-31;1,0;27,0;-100;2,0;0,0;1,0;3,0;column;0,0;False;False;False;1,11699986458;True;1,367000103
VEH1985w;experiment;2017-01-26-09-19-31;1,0;28,0;-100;3,0;1,0;0,0;2,0;column;1,0;True;False;True;1,11599993706;True;1,33599996567
VEH1985w;experiment;2017-01-26-09-19-31;1,0;29,0;-100;2,0;0,0;1,0;3,0;row;0,0;True;False;False;1,18299984932;False;0,763000011444
VEH1985w;experiment;2017-01-26-09-19-31;1,0;30,0;-100;1,0;2,0;3,0;0,0;column;0,0;True;False;False;1,11699986458;False;1,06900000572
VEH1985w;experiment;2017-01-26-09-19-31;1,0;31,0;-100;3,0;0,0;2,0;1,0;row;0,0;False;True;True;1,14999985695;False;1,49900007248
VEH1985w;experiment;2017-01-26-09-19-31;1,0;32,0;-100;1,0;2,0;0,0;3,0;column;1,0;False;False;True;1,58500003815;False;1,43400001526
VEH1985w;experiment;2017-01-26-09-19-31;1,0;33,0;-100;0,0;1,0;3,0;2,0;column;1,0;True;True;False;1,34899997711;False;1,30200004578
VEH1985w;experiment;2017-01-26-09-19-31;1,0;34,0;-100;2,0;1,0;0,0;3,0;column;1,0;True;False;True;1,617000103;True;0,530999898911
VEH1985w;experiment;2017-01-26-09-19-31;1,0;35,0;-100;0,0;2,0;1,0;3,0;column;0,0;True;False;True;1,78399991989;True;1,13499999046
VEH1985w;experiment;2017-01-26-09-19-31;1,0;36,0;-100;1,0;0,0;3,0;2,0;column;1,0;False;True;False;1,18400001526;True;1,36500000954
VEH1985w;experiment;2017-01-26-09-19-31;1,0;37,0;-100;1,0;2,0;0,0;3,0;row;1,0;True;False;True;1,31699991226;True;0,664000034332
VEH1985w;experiment;2017-01-26-09-19-31;1,0;38,0;-100;2,0;0,0;1,0;3,0;column;1,0;False;False;True;1,25;False;1,12700009346
VEH1985w;experiment;2017-01-26-09-19-31;1,0;39,0;-100;3,0;0,0;1,0;2,0;column;1,0;True;True;True;1,01699995995;True;1,40499997139
VEH1985w;experiment;2017-01-26-09-19-31;1,0;40,0;-100;0,0;1,0;3,0;2,0;row;0,0;True;False;True;1,21700000763;True;0,671000003815
VEH1985w;experiment;2017-01-26-09-19-31;1,0;41,0;-100;2,0;1,0;0,0;3,0;row;0,0;False;False;False;1,08299994469;True;0,801999807358
VEH1985w;experiment;2017-01-26-09-19-31;1,0;42,0;-100;3,0;2,0;1,0;0,0;row;1,0;True;True;True;1,117000103;True;0,772000074387
VEH1985w;experiment;2017-01-26-09-19-31;1,0;43,0;-100;3,0;1,0;2,0;0,0;column;1,0;False;False;True;1,24899983406;False;1,07199978828
VEH1985w;experiment;2017-01-26-09-19-31;1,0;44,0;-100;3,0;0,0;2,0;1,0;column;1,0;False;True;False;1,58300018311;True;1,125
VEH1985w;experiment;2017-01-26-09-19-31;1,0;45,0;-100;2,0;3,0;1,0;0,0;column;1,0;True;True;True;0,850000143051;True;1,03299999237
VEH1985w;experiment;2017-01-26-09-19-31;1,0;46,0;-100;0,0;2,0;3,0;1,0;column;1,0;True;False;True;1,01699995995;True;1,10299992561
VEH1985w;experiment;2017-01-26-09-19-31;1,0;47,0;-100;1,0;0,0;3,0;2,0;row;1,0;False;True;False;1,04999995232;True;0,600000143051
VEH1985w;experiment;2017-01-26-09-19-31;1,0;48,0;-100;1,0;0,0;3,0;2,0;column;0,0;True;False;True;0,884999990463;True;0,736000061035
VEH1985w;experiment;2017-01-26-09-19-31;2,0;1,0;100;3,0;0,0;2,0;1,0;column;1,0;True;True;True;1,46600008011;True;1,47399997711
VEH1985w;experiment;2017-01-26-09-19-31;2,0;2,0;100;2,0;3,0;1,0;0,0;column;1,0;False;True;False;1,03299999237;True;1,4359998703
VEH1985w;experiment;2017-01-26-09-19-31;2,0;3,0;100;1,0;2,0;3,0;0,0;row;0,0;True;False;False;1,03299999237;False;0,53200006485
VEH1985w;experiment;2017-01-26-09-19-31;2,0;4,0;100;2,0;3,0;0,0;1,0;row;1,0;True;True;False;1,09800004959;False;0,901000022888
VEH1985w;experiment;2017-01-26-09-19-31;2,0;5,0;100;1,0;0,0;3,0;2,0;column;0,0;True;True;True;1,43300008774;True;1,09899997711
VEH1985w;experiment;2017-01-26-09-19-31;2,0;6,0;100;0,0;2,0;1,0;3,0;column;1,0;True;True;True;0,834000110626;True;1,4929997921
VEH1985w;experiment;2017-01-26-09-19-31;2,0;7,0;100;0,0;1,0;3,0;2,0;column;0,0;False;True;True;1,56599998474;False;1,33400011063
VEH1985w;experiment;2017-01-26-09-19-31;2,0;8,0;100;1,0;0,0;3,0;2,0;row;1,0;True;True;False;1,26700019836;False;0,930999994278
VEH1985w;experiment;2017-01-26-09-19-31;2,0;9,0;100;2,0;0,0;1,0;3,0;column;0,0;True;True;True;2,06699991226;True;1,49900007248
VEH1985w;experiment;2017-01-26-09-19-31;2,0;10,0;100;0,0;2,0;3,0;1,0;row;0,0;False;True;True;1,5;False;0,731999874115
VEH1985w;experiment;2017-01-26-09-19-31;2,0;11,0;100;2,0;1,0;0,0;3,0;row;1,0;False;True;False;1,26600003242;True;1,10000014305
VEH1985w;experiment;2017-01-26-09-19-31;2,0;12,0;100;0,0;1,0;3,0;2,0;row;1,0;False;True;False;2,13499999046;True;1,38700008392
VEH1985w;experiment;2017-01-26-09-19-31;2,0;13,0;100;1,0;2,0;3,0;0,0;row;0,0;False;True;False;2,09999990463;True;0,693000078201
VEH1985w;experiment;2017-01-26-09-19-31;2,0;14,0;100;0,0;3,0;1,0;2,0;column;1,0;True;False;False;1,70000004768;False;0,634999990463
VEH1985w;experiment;2017-01-26-09-19-31;2,0;15,0;100;0,0;3,0;1,0;2,0;row;0,0;False;True;False;1,96700000763;True;0,97000002861
VEH1985w;experiment;2017-01-26-09-19-31;2,0;16,0;100;1,0;2,0;0,0;3,0;column;1,0;True;True;False;1,63300013542;False;0,968999862671
VEH1985w;experiment;2017-01-26-09-19-31;2,0;17,0;100;1,0;2,0;0,0;3,0;row;0,0;True;False;True;1,5;True;1,36699986458
VEH1985w;experiment;2017-01-26-09-19-31;2,0;18,0;100;1,0;3,0;0,0;2,0;row;0,0;True;False;True;1,0;True;1,1320002079
VEH1985w;experiment;2017-01-26-09-19-31;2,0;19,0;100;0,0;1,0;2,0;3,0;row;1,0;True;True;True;1,60000014305;True;0,65700006485
VEH1985w;experiment;2017-01-26-09-19-31;2,0;20,0;100;1,0;3,0;0,0;2,0;column;0,0;False;True;False;1,90000009537;True;1,42300009727
VEH1985w;experiment;2017-01-26-09-19-31;2,0;21,0;100;1,0;3,0;0,0;2,0;column;0,0;True;False;True;1,2009999752;True;1,19800019264
VEH1985w;experiment;2017-01-26-09-19-31;2,0;22,0;100;1,0;3,0;2,0;0,0;row;0,0;True;True;False;1,83299994469;False;1,06799983978
VEH1985w;experiment;2017-01-26-09-19-31;2,0;23,0;100;3,0;0,0;1,0;2,0;column;0,0;True;True;False;1,86699986458;False;1,3259999752
VEH1985w;experiment;2017-01-26-09-19-31;2,0;24,0;100;1,0;0,0;3,0;2,0;row;0,0;False;True;False;2,06699991226;True;1,26499986649
VEH1985w;experiment;2017-01-26-09-19-31;2,0;25,0;100;3,0;2,0;0,0;1,0;column;1,0;False;False;False;1,76699995995;True;0,802000045776
VEH1985w;experiment;2017-01-26-09-19-31;2,0;26,0;100;2,0;1,0;0,0;3,0;row;1,0;True;True;True;2,39899992943;True;1,10500001907
VEH1985w;experiment;2017-01-26-09-19-31;2,0;27,0;100;1,0;0,0;2,0;3,0;column;1,0;False;False;False;1,132999897;True;1,4319999218
VEH1985w;experiment;2017-01-26-09-19-31;2,0;28,0;100;3,0;0,0;1,0;2,0;row;1,0;False;True;False;1,43300008774;True;0,600000143051
VEH1985w;experiment;2017-01-26-09-19-31;2,0;29,0;100;0,0;3,0;2,0;1,0;row;1,0;False;True;False;2,03200006485;True;0,834000110626
VEH1985w;experiment;2017-01-26-09-19-31;2,0;30,0;100;0,0;1,0;3,0;2,0;column;1,0;False;True;False;1,79999995232;True;1,43400001526
VEH1985w;experiment;2017-01-26-09-19-31;2,0;31,0;100;0,0;2,0;1,0;3,0;row;1,0;False;True;False;1,70000004768;True;0,728999853134
VEH1985w;experiment;2017-01-26-09-19-31;2,0;32,0;100;3,0;2,0;1,0;0,0;row;1,0;False;False;False;1,632999897;True;0,828999996185
VEH1985w;experiment;2017-01-26-09-19-31;2,0;33,0;100;0,0;3,0;2,0;1,0;column;0,0;True;True;False;1,86699986458;False;0,701999902725
VEH1985w;experiment;2017-01-26-09-19-31;2,0;34,0;100;0,0;1,0;2,0;3,0;row;0,0;False;False;False;2,132999897;True;0,559000015259
VEH1985w;experiment;2017-01-26-09-19-31;2,0;35,0;100;3,0;1,0;2,0;0,0;row;1,0;False;False;True;2,26800012589;False;1,10199999809
VEH1985w;experiment;2017-01-26-09-19-31;2,0;36,0;100;3,0;1,0;2,0;0,0;row;0,0;True;True;True;2,76699995995;True;0,628999948502
VEH1985w;experiment;2017-01-26-09-19-31;2,0;37,0;100;1,0;3,0;2,0;0,0;column;1,0;False;True;False;1,99799990654;True;1,06599998474
VEH1985w;experiment;2017-01-26-09-19-31;2,0;38,0;100;1,0;2,0;0,0;3,0;row;1,0;True;True;False;2,09899997711;False;0,5640001297
VEH1985w;experiment;2017-01-26-09-19-31;2,0;39,0;100;3,0;1,0;2,0;0,0;row;1,0;True;True;True;1,93299984932;True;0,733999967575
VEH1985w;experiment;2017-01-26-09-19-31;2,0;40,0;100;1,0;0,0;3,0;2,0;column;1,0;True;False;False;2,09999990463;False;1,49399995804
VEH1985w;experiment;2017-01-26-09-19-31;2,0;41,0;100;3,0;1,0;2,0;0,0;column;0,0;True;False;True;1,53299999237;True;0,726000070572
VEH1985w;experiment;2017-01-26-09-19-31;2,0;42,0;100;0,0;3,0;1,0;2,0;row;0,0;True;True;True;0,998999834061;True;0,55999994278
VEH1985w;experiment;2017-01-26-09-19-31;2,0;43,0;100;3,0;2,0;0,0;1,0;row;1,0;False;True;True;3,06599998474;False;0,697999954224
VEH1985w;experiment;2017-01-26-09-19-31;2,0;44,0;100;0,0;2,0;3,0;1,0;column;1,0;True;False;True;2,86699986458;True;0,598000049591
VEH1985w;experiment;2017-01-26-09-19-31;2,0;45,0;100;3,0;2,0;1,0;0,0;column;0,0;True;True;True;2,5;True;1,26399993896
VEH1985w;experiment;2017-01-26-09-19-31;2,0;46,0;100;3,0;1,0;2,0;0,0;column;1,0;True;False;False;1,90000009537;False;1,49899983406
VEH1985w;experiment;2017-01-26-09-19-31;2,0;47,0;100;3,0;1,0;0,0;2,0;column;0,0;False;True;False;3,26699995995;True;1,23099994659
VEH1985w;experiment;2017-01-26-09-19-31;2,0;48,0;100;3,0;1,0;2,0;0,0;column;1,0;False;True;True;2,56599998474;False;0,772000074387
VEH1985w;experiment;2017-01-26-09-19-31;3,0;1,0;1000;3,0;2,0;0,0;1,0;row;0,0;True;False;True;1,59999990463;True;1,44099998474
VEH1985w;experiment;2017-01-26-09-19-31;3,0;2,0;1000;3,0;2,0;1,0;0,0;column;1,0;False;True;False;2,09999990463;True;1,03299999237
VEH1985w;experiment;2017-01-26-09-19-31;3,0;3,0;1000;0,0;2,0;3,0;1,0;row;0,0;True;True;True;1,83399987221;True;0,899999856949
VEH1985w;experiment;2017-01-26-09-19-31;3,0;4,0;1000;0,0;3,0;1,0;2,0;column;0,0;True;False;True;1,96700000763;True;1,29399991035
VEH1985w;experiment;2017-01-26-09-19-31;3,0;5,0;1000;1,0;0,0;3,0;2,0;column;1,0;False;True;False;2,13399982452;True;0,703000068665
VEH1985w;experiment;2017-01-26-09-19-31;3,0;6,0;1000;1,0;3,0;0,0;2,0;column;1,0;True;True;True;1,73399996758;True;0,533999919891
VEH1985w;experiment;2017-01-26-09-19-31;3,0;7,0;1000;1,0;2,0;3,0;0,0;column;1,0;True;False;True;2,43300008774;True;1,03299999237
VEH1985w;experiment;2017-01-26-09-19-31;3,0;8,0;1000;1,0;2,0;0,0;3,0;column;1,0;False;False;False;1,96700000763;True;0,773000001907
VEH1985w;experiment;2017-01-26-09-19-31;3,0;9,0;1000;2,0;1,0;3,0;0,0;row;0,0;False;True;False;2,43300008774;True;0,865000009537
VEH1985w;experiment;2017-01-26-09-19-31;3,0;10,0;1000;0,0;3,0;2,0;1,0;row;1,0;True;True;False;2,76699995995;False;0,525000095367
VEH1985w;experiment;2017-01-26-09-19-31;3,0;11,0;1000;0,0;3,0;1,0;2,0;column;1,0;False;True;False;3,09999990463;True;1,16599988937
VEH1985w;experiment;2017-01-26-09-19-31;3,0;12,0;1000;1,0;2,0;3,0;0,0;column;0,0;False;True;False;3,76600003242;True;1,15999984741
VEH1985w;experiment;2017-01-26-09-19-31;3,0;13,0;1000;2,0;3,0;0,0;1,0;column;0,0;True;False;False;1,43399977684;False;0,626999855042
VEH1985w;experiment;2017-01-26-09-19-31;3,0;14,0;1000;0,0;2,0;3,0;1,0;column;1,0;False;False;False;3,43299984932;True;1,0
VEH1985w;experiment;2017-01-26-09-19-31;3,0;15,0;1000;1,0;3,0;0,0;2,0;row;1,0;True;False;True;1,43299984932;True;0,861999988556
VEH1985w;experiment;2017-01-26-09-19-31;3,0;16,0;1000;2,0;3,0;1,0;0,0;column;1,0;False;False;False;3,16700005531;True;1,43700003624
VEH1985w;experiment;2017-01-26-09-19-31;3,0;17,0;1000;2,0;0,0;1,0;3,0;column;1,0;False;False;False;2,83299994469;True;1,03100013733
VEH1985w;experiment;2017-01-26-09-19-31;3,0;18,0;1000;3,0;1,0;2,0;0,0;row;0,0;False;False;False;2,79999995232;True;1,42599987984
VEH1985w;experiment;2017-01-26-09-19-31;3,0;19,0;1000;2,0;0,0;1,0;3,0;row;0,0;True;True;True;1,23399996758;True;1,13000011444
VEH1985w;experiment;2017-01-26-09-19-31;3,0;20,0;1000;3,0;2,0;0,0;1,0;row;0,0;False;False;False;3,76600003242;True;0,902000188828
VEH1985w;experiment;2017-01-26-09-19-31;3,0;21,0;1000;3,0;2,0;1,0;0,0;column;0,0;False;False;False;2,73300004005;True;1,22300004959
VEH1985w;experiment;2017-01-26-09-19-31;3,0;22,0;1000;2,0;1,0;0,0;3,0;row;1,0;False;False;False;2,16700005531;True;0,93399977684
VEH1985w;experiment;2017-01-26-09-19-31;3,0;23,0;1000;0,0;2,0;1,0;3,0;row;1,0;False;True;False;2,40000009537;True;0,957999944687
VEH1985w;experiment;2017-01-26-09-19-31;3,0;24,0;1000;1,0;0,0;2,0;3,0;column;1,0;True;True;True;1,46600008011;True;0,524999856949
VEH1985w;experiment;2017-01-26-09-19-31;3,0;25,0;1000;0,0;1,0;2,0;3,0;row;1,0;True;False;True;1,5;True;1,43099999428
VEH1985w;experiment;2017-01-26-09-19-31;3,0;26,0;1000;2,0;0,0;3,0;1,0;row;0,0;False;True;False;2,23300004005;True;1,26400017738
VEH1985w;experiment;2017-01-26-09-19-31;3,0;27,0;1000;2,0;1,0;0,0;3,0;column;1,0;False;False;False;1,93299984932;True;1,49300003052
VEH1985w;experiment;2017-01-26-09-19-31;3,0;28,0;1000;3,0;2,0;1,0;0,0;row;1,0;True;True;False;1,53299999237;False;1,0
VEH1985w;experiment;2017-01-26-09-19-31;3,0;29,0;1000;3,0;2,0;1,0;0,0;row;0,0;True;True;True;1,66700005531;True;0,964999914169
VEH1985w;experiment;2017-01-26-09-19-31;3,0;30,0;1000;3,0;2,0;0,0;1,0;row;1,0;False;False;False;3,20000004768;True;0,701999902725
VEH1985w;experiment;2017-01-26-09-19-31;3,0;31,0;1000;1,0;3,0;0,0;2,0;column;1,0;False;False;False;1,76499986649;True;1,49099993706
VEH1985w;experiment;2017-01-26-09-19-31;3,0;32,0;1000;0,0;2,0;1,0;3,0;column;1,0;False;False;False;2,26699995995;True;1,32999992371
VEH1985w;experiment;2017-01-26-09-19-31;3,0;33,0;1000;3,0;0,0;1,0;2,0;column;0,0;True;False;True;1,13399982452;True;1,13400006294
VEH1985w;experiment;2017-01-26-09-19-31;3,0;34,0;1000;0,0;3,0;2,0;1,0;row;0,0;False;False;False;2,33400011063;True;1,39800000191
VEH1985w;experiment;2017-01-26-09-19-31;3,0;35,0;1000;2,0;0,0;3,0;1,0;column;0,0;False;True;False;1,53299999237;True;0,695999860764
VEH1985w;experiment;2017-01-26-09-19-31;3,0;36,0;1000;3,0;0,0;1,0;2,0;row;0,0;True;True;True;1,26600003242;True;1,10199999809
VEH1985w;experiment;2017-01-26-09-19-31;3,0;37,0;1000;2,0;3,0;0,0;1,0;column;1,0;False;False;False;1,53300023079;True;1,25999999046
VEH1985w;experiment;2017-01-26-09-19-31;3,0;38,0;1000;1,0;2,0;3,0;0,0;row;1,0;False;False;False;1,76600003242;True;0,802000045776
VEH1985w;experiment;2017-01-26-09-19-31;3,0;39,0;1000;3,0;2,0;0,0;1,0;column;1,0;False;True;False;1,73399996758;True;0,703999996185
VEH1985w;experiment;2017-01-26-09-19-31;3,0;40,0;1000;2,0;3,0;0,0;1,0;row;0,0;True;False;True;1,09899997711;True;1,03299999237
VEH1985w;experiment;2017-01-26-09-19-31;3,0;41,0;1000;0,0;2,0;3,0;1,0;row;1,0;True;False;True;1,20000004768;True;1,00199985504
VEH1985w;experiment;2017-01-26-09-19-31;3,0;42,0;1000;2,0;3,0;1,0;0,0;row;1,0;True;False;True;0,900000095367;True;0,801999807358
VEH1985w;experiment;2017-01-26-09-19-31;3,0;43,0;1000;2,0;1,0;0,0;3,0;row;0,0;False;True;False;2,26800012589;True;0,528000116348
VEH1985w;experiment;2017-01-26-09-19-31;3,0;44,0;1000;2,0;1,0;0,0;3,0;column;0,0;False;False;False;1,96700000763;True;1,05599999428
VEH1985w;experiment;2017-01-26-09-19-31;3,0;45,0;1000;2,0;3,0;1,0;0,0;row;0,0;True;False;True;0,967000007629;True;1,09299993515
VEH1985w;experiment;2017-01-26-09-19-31;3,0;46,0;1000;2,0;3,0;0,0;1,0;column;1,0;True;False;True;2,73399996758;True;1,0649998188
VEH1985w;experiment;2017-01-26-09-19-31;3,0;47,0;1000;1,0;0,0;3,0;2,0;row;0,0;True;True;True;1,40000009537;True;1,16900014877
VEH1985w;experiment;2017-01-26-09-19-31;3,0;48,0;1000;3,0;2,0;1,0;0,0;row;0,0;False;False;False;2,63399982452;True;1,09500002861
VEH1985w;experiment;2017-01-26-09-19-31;4,0;1,0;100;1,0;2,0;0,0;3,0;column;0,0;True;True;False;1,83300018311;False;1,36599993706
VEH1985w;experiment;2017-01-26-09-19-31;4,0;2,0;100;0,0;3,0;1,0;2,0;column;0,0;True;True;False;3,53299999237;False;0,868000030518
VEH1985w;experiment;2017-01-26-09-19-31;4,0;3,0;100;2,0;1,0;3,0;0,0;row;1,0;False;True;False;1,60000014305;True;0,835000038147
VEH1985w;experiment;2017-01-26-09-19-31;4,0;4,0;100;2,0;1,0;3,0;0,0;row;1,0;True;False;True;1,43300008774;True;0,797999858856
VEH1985w;experiment;2017-01-26-09-19-31;4,0;5,0;100;0,0;1,0;2,0;3,0;row;0,0;True;False;True;1,03300023079;True;0,825999975204
VEH1985w;experiment;2017-01-26-09-19-31;4,0;6,0;100;3,0;2,0;1,0;0,0;column;1,0;False;False;False;2,23300004005;True;1,25899982452
VEH1985w;experiment;2017-01-26-09-19-31;4,0;7,0;100;2,0;3,0;0,0;1,0;row;0,0;True;True;True;1,36600017548;True;0,797999858856
VEH1985w;experiment;2017-01-26-09-19-31;4,0;8,0;100;2,0;3,0;0,0;1,0;column;1,0;False;True;False;1,89999985695;True;0,929000139236
VEH1985w;experiment;2017-01-26-09-19-31;4,0;9,0;100;1,0;2,0;0,0;3,0;column;0,0;False;False;False;2,03299999237;True;0,698000192642
VEH1985w;experiment;2017-01-26-09-19-31;4,0;10,0;100;0,0;1,0;3,0;2,0;column;1,0;True;False;True;1,86699986458;True;0,869000196457
VEH1985w;experiment;2017-01-26-09-19-31;4,0;11,0;100;0,0;3,0;1,0;2,0;row;1,0;False;False;False;2,40000009537;True;0,700999975204
VEH1985w;experiment;2017-01-26-09-19-31;4,0;12,0;100;1,0;3,0;0,0;2,0;column;1,0;True;True;True;1,10000014305;True;0,832999944687
VEH1985w;experiment;2017-01-26-09-19-31;4,0;13,0;100;1,0;3,0;0,0;2,0;row;0,0;False;False;False;1,96700000763;True;1,32800006866
VEH1985w;experiment;2017-01-26-09-19-31;4,0;14,0;100;0,0;2,0;3,0;1,0;row;1,0;True;True;False;1,43400001526;False;1,39800000191
VEH1985w;experiment;2017-01-26-09-19-31;4,0;15,0;100;3,0;2,0;1,0;0,0;row;0,0;True;False;True;2,59999990463;True;0,903000116348
VEH1985w;experiment;2017-01-26-09-19-31;4,0;16,0;100;0,0;2,0;1,0;3,0;row;0,0;True;False;True;2,26699995995;True;1,03500008583
VEH1985w;experiment;2017-01-26-09-19-31;4,0;17,0;100;3,0;2,0;1,0;0,0;row;0,0;False;True;False;1,73299980164;True;0,765000104904
VEH1985w;experiment;2017-01-26-09-19-31;4,0;18,0;100;1,0;3,0;0,0;2,0;column;1,0;False;False;False;1,96800017357;True;1,26699995995
VEH1985w;experiment;2017-01-26-09-19-31;4,0;19,0;100;2,0;0,0;3,0;1,0;column;0,0;True;True;False;1,63300013542;False;0,730000019073
VEH1985w;experiment;2017-01-26-09-19-31;4,0;20,0;100;0,0;1,0;3,0;2,0;column;0,0;True;False;True;1,367000103;True;1,0680000782
VEH1985w;experiment;2017-01-26-09-19-31;4,0;21,0;100;2,0;0,0;3,0;1,0;column;1,0;False;True;False;1,66700005531;True;1,06699991226
VEH1985w;experiment;2017-01-26-09-19-31;4,0;22,0;100;1,0;0,0;3,0;2,0;column;0,0;False;False;False;1,63400006294;True;1,43400001526
VEH1985w;experiment;2017-01-26-09-19-31;4,0;23,0;100;3,0;2,0;0,0;1,0;row;0,0;True;False;True;1,89999985695;True;0,698999881744
VEH1985w;experiment;2017-01-26-09-19-31;4,0;24,0;100;1,0;2,0;3,0;0,0;row;1,0;True;False;False;1,66700005531;False;0,667000055313
VEH1985w;experiment;2017-01-26-09-19-31;4,0;25,0;100;0,0;3,0;1,0;2,0;row;1,0;True;False;True;1,46700000763;True;1,32099986076
VEH1985w;experiment;2017-01-26-09-19-31;4,0;26,0;100;2,0;0,0;3,0;1,0;column;1,0;True;True;True;1,59999990463;True;0,738000154495
VEH1985w;experiment;2017-01-26-09-19-31;4,0;27,0;100;2,0;3,0;0,0;1,0;row;0,0;False;False;False;3,06599998474;True;1,52800011635
VEH1985w;experiment;2017-01-26-09-19-31;4,0;28,0;100;3,0;2,0;0,0;1,0;row;1,0;True;False;True;1,43400001526;True;1,33200001717
VEH1985w;experiment;2017-01-26-09-19-31;4,0;29,0;100;2,0;0,0;1,0;3,0;row;1,0;False;True;False;1,79999995232;True;0,558000087738
VEH1985w;experiment;2017-01-26-09-19-31;4,0;30,0;100;1,0;2,0;3,0;0,0;column;1,0;False;False;False;2,23300004005;True;1,43300008774
VEH1985w;experiment;2017-01-26-09-19-31;4,0;31,0;100;3,0;1,0;0,0;2,0;column;0,0;True;True;False;3,0;False;1,16599988937
VEH1985w;experiment;2017-01-26-09-19-31;4,0;32,0;100;2,0;1,0;3,0;0,0;column;0,0;False;True;False;3,26600003242;True;1,50200009346
VEH1985w;experiment;2017-01-26-09-19-31;4,0;33,0;100;0,0;1,0;2,0;3,0;column;1,0;True;False;False;2,30000019073;False;1,40299987793
VEH1985w;experiment;2017-01-26-09-19-31;4,0;34,0;100;1,0;0,0;2,0;3,0;row;1,0;True;True;False;1,93400001526;False;0,599999904633
VEH1985w;experiment;2017-01-26-09-19-31;4,0;35,0;100;2,0;1,0;0,0;3,0;column;1,0;True;False;False;2,10899996758;False;0,602999925613
VEH1985w;experiment;2017-01-26-09-19-31;4,0;36,0;100;2,0;1,0;0,0;3,0;row;0,0;False;False;False;2,30000019073;True;0,632999897003
VEH1985w;experiment;2017-01-26-09-19-31;4,0;37,0;100;2,0;3,0;0,0;1,0;row;1,0;False;True;False;1,76599979401;True;1,19699978828
VEH1985w;experiment;2017-01-26-09-19-31;4,0;38,0;100;3,0;0,0;1,0;2,0;column;0,0;False;False;False;2,06500005722;True;0,52899980545
VEH1985w;experiment;2017-01-26-09-19-31;4,0;39,0;100;3,0;1,0;0,0;2,0;column;1,0;False;False;False;2,09999990463;True;0,532999992371
VEH1985w;experiment;2017-01-26-09-19-31;4,0;40,0;100;1,0;0,0;3,0;2,0;row;0,0;True;False;True;2,59899997711;True;1,49599981308
VEH1985w;experiment;2017-01-26-09-19-31;4,0;41,0;100;2,0;3,0;0,0;1,0;column;0,0;False;False;False;2,20000004768;True;1,3710000515
VEH1985w;experiment;2017-01-26-09-19-31;4,0;42,0;100;0,0;3,0;2,0;1,0;column;1,0;True;True;True;1,06700015068;True;0,663999795914
VEH1985w;experiment;2017-01-26-09-19-31;4,0;43,0;100;0,0;1,0;2,0;3,0;column;1,0;False;True;False;1,60000014305;True;1,37299990654
VEH1985w;experiment;2017-01-26-09-19-31;4,0;44,0;100;1,0;3,0;0,0;2,0;row;1,0;True;False;True;1,60100007057;True;0,565999984741
VEH1985w;experiment;2017-01-26-09-19-31;4,0;45,0;100;2,0;3,0;0,0;1,0;column;1,0;True;True;True;1,83299994469;True;0,966000080109
VEH1985w;experiment;2017-01-26-09-19-31;4,0;46,0;100;2,0;1,0;0,0;3,0;column;0,0;False;True;False;1,5;True;0,773999929428
VEH1985w;experiment;2017-01-26-09-19-31;4,0;47,0;100;2,0;0,0;1,0;3,0;column;1,0;True;False;True;1,59999990463;True;0,801000118256
VEH1985w;experiment;2017-01-26-09-19-31;4,0;48,0;100;0,0;1,0;3,0;2,0;row;0,0;False;False;False;2,33400011063;True;1,03199982643
VEH1985w;experiment;2017-01-26-09-19-31;5,0;1,0;1000;1,0;0,0;2,0;3,0;row;1,0;False;False;False;1,33500003815;True;1,37399983406
VEH1985w;experiment;2017-01-26-09-19-31;5,0;2,0;1000;2,0;1,0;3,0;0,0;column;0,0;True;False;True;0,799999952316;True;1,30100011826
VEH1985w;experiment;2017-01-26-09-19-31;5,0;3,0;1000;1,0;2,0;0,0;3,0;row;0,0;False;False;False;1,63300013542;True;0,861000061035
VEH1985w;experiment;2017-01-26-09-19-31;5,0;4,0;1000;2,0;0,0;3,0;1,0;column;1,0;True;True;True;0,967000007629;True;1,3259999752
VEH1985w;experiment;2017-01-26-09-19-31;5,0;5,0;1000;1,0;3,0;2,0;0,0;column;1,0;False;False;False;1,83300018311;True;1,36899995804
VEH1985w;experiment;2017-01-26-09-19-31;5,0;6,0;1000;2,0;3,0;0,0;1,0;column;0,0;False;False;False;1,66700005531;True;1,46700000763
VEH1985w;experiment;2017-01-26-09-19-31;5,0;7,0;1000;2,0;3,0;0,0;1,0;row;1,0;False;True;False;1,66699981689;True;0,799000024796
VEH1985w;experiment;2017-01-26-09-19-31;5,0;8,0;1000;0,0;2,0;1,0;3,0;column;0,0;False;False;False;2,13099980354;True;1,12700009346
VEH1985w;experiment;2017-01-26-09-19-31;5,0;9,0;1000;0,0;1,0;3,0;2,0;column;1,0;True;True;True;1,36599993706;True;1,23300004005
VEH1985w;experiment;2017-01-26-09-19-31;5,0;10,0;1000;0,0;1,0;2,0;3,0;column;0,0;True;True;False;2,0;False;1,49699997902
VEH1985w;experiment;2017-01-26-09-19-31;5,0;11,0;1000;0,0;3,0;1,0;2,0;row;0,0;True;False;False;2,632999897;False;1,03000020981
VEH1985w;experiment;2017-01-26-09-19-31;5,0;12,0;1000;1,0;3,0;2,0;0,0;column;0,0;True;False;True;1,96700000763;True;1,49900007248
VEH1985w;experiment;2017-01-26-09-19-31;5,0;13,0;1000;3,0;1,0;0,0;2,0;row;0,0;True;True;True;1,0;True;0,626999855042
VEH1985w;experiment;2017-01-26-09-19-31;5,0;14,0;1000;0,0;2,0;1,0;3,0;row;1,0;True;True;False;1,43299984932;False;1,03400015831
VEH1985w;experiment;2017-01-26-09-19-31;5,0;15,0;1000;3,0;2,0;0,0;1,0;column;0,0;False;False;True;5,16599988937;False;1,09500002861
VEH1985w;experiment;2017-01-26-09-19-31;5,0;16,0;1000;0,0;1,0;2,0;3,0;column;0,0;False;False;False;3,33399987221;True;1,09400010109
VEH1985w;experiment;2017-01-26-09-19-31;5,0;17,0;1000;0,0;3,0;1,0;2,0;column;0,0;False;False;False;4,83200001717;True;1,06599998474
VEH1985w;experiment;2017-01-26-09-19-31;5,0;18,0;1000;3,0;1,0;0,0;2,0;column;0,0;True;False;True;1,06699991226;True;0,666000127792
VEH1985w;experiment;2017-01-26-09-19-31;5,0;19,0;1000;1,0;0,0;2,0;3,0;column;1,0;False;False;False;2,03400015831;True;0,803999900818
VEH1985w;experiment;2017-01-26-09-19-31;5,0;20,0;1000;2,0;0,0;1,0;3,0;column;1,0;True;True;True;1,43400001526;True;0,734999895096
VEH1985w;experiment;2017-01-26-09-19-31;5,0;21,0;1000;2,0;3,0;0,0;1,0;row;0,0;False;True;False;2,20000004768;True;1,29200005531
VEH1985w;experiment;2017-01-26-09-19-31;5,0;22,0;1000;3,0;1,0;0,0;2,0;row;1,0;True;True;True;3,76699995995;True;0,727999925613
VEH1985w;experiment;2017-01-26-09-19-31;5,0;23,0;1000;2,0;1,0;3,0;0,0;column;1,0;True;False;True;1,13300013542;True;0,664999961853
VEH1985w;experiment;2017-01-26-09-19-31;5,0;24,0;1000;2,0;1,0;3,0;0,0;row;1,0;False;True;True;0,899999856949;False;1,00199985504
VEH1985w;experiment;2017-01-26-09-19-31;5,0;25,0;1000;0,0;2,0;1,0;3,0;column;1,0;True;False;True;0,934000015259;True;0,733000040054
VEH1985w;experiment;2017-01-26-09-19-31;5,0;26,0;1000;0,0;1,0;3,0;2,0;column;1,0;False;True;False;1,632999897;True;1,23300004005
VEH1985w;experiment;2017-01-26-09-19-31;5,0;27,0;1000;2,0;3,0;1,0;0,0;column;1,0;True;False;True;0,900000095367;True;0,635000228882
VEH1985w;experiment;2017-01-26-09-19-31;5,0;28,0;1000;1,0;0,0;3,0;2,0;column;0,0;False;True;False;2,26600003242;True;0,732000112534
VEH1985w;experiment;2017-01-26-09-19-31;5,0;29,0;1000;2,0;0,0;1,0;3,0;row;0,0;False;True;False;1,96700000763;True;1,23399996758
VEH1985w;experiment;2017-01-26-09-19-31;5,0;30,0;1000;2,0;0,0;3,0;1,0;column;1,0;False;True;False;2,23399996758;True;1,30099987984
VEH1985w;experiment;2017-01-26-09-19-31;5,0;31,0;1000;3,0;1,0;2,0;0,0;row;1,0;True;False;True;0,797999858856;True;1,36800003052
VEH1985w;experiment;2017-01-26-09-19-31;5,0;32,0;1000;0,0;1,0;3,0;2,0;row;0,0;False;True;False;2,632999897;True;1,49900007248
VEH1985w;experiment;2017-01-26-09-19-31;5,0;33,0;1000;0,0;3,0;2,0;1,0;row;1,0;False;True;False;1,69999980927;True;0,835000038147
VEH1985w;experiment;2017-01-26-09-19-31;5,0;34,0;1000;2,0;3,0;1,0;0,0;column;0,0;True;False;True;1,26600003242;True;0,924000024796
VEH1985w;experiment;2017-01-26-09-19-31;5,0;35,0;1000;1,0;2,0;0,0;3,0;column;1,0;True;True;True;1,63399982452;True;0,691999912262
VEH1985w;experiment;2017-01-26-09-19-31;5,0;36,0;1000;1,0;3,0;2,0;0,0;row;1,0;True;True;False;3,16700005531;False;0,733000040054
VEH1985w;experiment;2017-01-26-09-19-31;5,0;37,0;1000;0,0;3,0;2,0;1,0;row;0,0;True;True;True;1,06699991226;True;0,799999952316
VEH1985w;experiment;2017-01-26-09-19-31;5,0;38,0;1000;3,0;1,0;2,0;0,0;column;0,0;False;True;False;1,70000004768;True;0,633000135422
VEH1985w;experiment;2017-01-26-09-19-31;5,0;39,0;1000;1,0;0,0;3,0;2,0;row;1,0;False;False;False;1,29999995232;True;1,26300001144
VEH1985w;experiment;2017-01-26-09-19-31;5,0;40,0;1000;3,0;1,0;0,0;2,0;row;1,0;False;False;False;1,46399998665;True;1,36899995804
VEH1985w;experiment;2017-01-26-09-19-31;5,0;41,0;1000;0,0;1,0;3,0;2,0;row;1,0;False;True;False;1,5;True;0,828000068665
VEH1985w;experiment;2017-01-26-09-19-31;5,0;42,0;1000;0,0;2,0;1,0;3,0;column;0,0;True;False;True;1,367000103;True;1,40100002289
VEH1985w;experiment;2017-01-26-09-19-31;5,0;43,0;1000;2,0;3,0;1,0;0,0;row;0,0;False;False;False;2,06699991226;True;0,736999988556
VEH1985w;experiment;2017-01-26-09-19-31;5,0;44,0;1000;2,0;0,0;1,0;3,0;row;1,0;True;True;False;1,30000019073;False;1,27099990845
VEH1985w;experiment;2017-01-26-09-19-31;5,0;45,0;1000;3,0;0,0;2,0;1,0;row;0,0;True;False;True;1,0;True;1,45900011063
VEH1985w;experiment;2017-01-26-09-19-31;5,0;46,0;1000;0,0;3,0;1,0;2,0;row;0,0;False;False;False;1,46500015259;True;0,595999956131
VEH1985w;experiment;2017-01-26-09-19-31;5,0;47,0;1000;1,0;0,0;3,0;2,0;column;1,0;True;False;True;0,766000032425;True;1,26299977303
VEH1985w;experiment;2017-01-26-09-19-31;5,0;48,0;1000;2,0;3,0;0,0;1,0;row;1,0;True;False;True;1,20000004768;True;0,927999973297
VEH1985w;experiment;2017-01-26-09-19-31;6,0;1,0;-100;1,0;0,0;3,0;2,0;row;0,0;False;True;False;2,41599988937;True;1,19600009918
VEH1985w;experiment;2017-01-26-09-19-31;6,0;2,0;-100;2,0;1,0;3,0;0,0;row;1,0;True;False;True;1,48299980164;True;1,43499994278
VEH1985w;experiment;2017-01-26-09-19-31;6,0;3,0;-100;3,0;0,0;2,0;1,0;row;1,0;False;True;False;2,382999897;True;1,30400013924
VEH1985w;experiment;2017-01-26-09-19-31;6,0;4,0;-100;1,0;0,0;3,0;2,0;column;1,0;True;False;True;1,18299984932;True;1,5
VEH1985w;experiment;2017-01-26-09-19-31;6,0;5,0;-100;2,0;0,0;1,0;3,0;row;1,0;False;False;False;4,41600012779;True;0,933000087738
VEH1985w;experiment;2017-01-26-09-19-31;6,0;6,0;-100;3,0;1,0;2,0;0,0;column;0,0;True;False;True;1,91599988937;True;0,653000116348
VEH1985w;experiment;2017-01-26-09-19-31;6,0;7,0;-100;0,0;1,0;2,0;3,0;row;0,0;False;False;False;3,88100004196;True;0,904000043869
VEH1985w;experiment;2017-01-26-09-19-31;6,0;8,0;-100;0,0;2,0;3,0;1,0;column;0,0;True;True;False;3,25;False;1,23000001907
VEH1985w;experiment;2017-01-26-09-19-31;6,0;9,0;-100;1,0;3,0;0,0;2,0;row;1,0;False;True;False;3,28299999237;True;1,19899988174
VEH1985w;experiment;2017-01-26-09-19-31;6,0;10,0;-100;1,0;2,0;3,0;0,0;row;0,0;True;False;True;2,41700005531;True;1,19099998474
VEH1985w;experiment;2017-01-26-09-19-31;6,0;11,0;-100;0,0;2,0;1,0;3,0;column;1,0;True;False;True;2,11599993706;True;1,50300002098
VEH1985w;experiment;2017-01-26-09-19-31;6,0;12,0;-100;1,0;0,0;2,0;3,0;row;1,0;False;True;False;3,0490000248;True;1,5
VEH1985w;experiment;2017-01-26-09-19-31;6,0;13,0;-100;2,0;3,0;1,0;0,0;row;1,0;False;True;False;2,58000016212;True;0,836999893188
VEH1985w;experiment;2017-01-26-09-19-31;6,0;14,0;-100;3,0;1,0;0,0;2,0;column;0,0;True;False;False;1,6819999218;False;0,623000144958
VEH1985w;experiment;2017-01-26-09-19-31;6,0;15,0;-100;3,0;1,0;2,0;0,0;row;0,0;True;False;False;2,382999897;False;1,26699995995
VEH1985w;experiment;2017-01-26-09-19-31;6,0;16,0;-100;1,0;0,0;2,0;3,0;column;0,0;False;False;False;2,71500015259;True;0,966000080109
VEH1985w;experiment;2017-01-26-09-19-31;6,0;17,0;-100;3,0;0,0;1,0;2,0;row;1,0;True;False;True;1,41499996185;True;0,697999954224
VEH1985w;experiment;2017-01-26-09-19-31;6,0;18,0;-100;0,0;1,0;2,0;3,0;column;1,0;False;True;False;1,61600017548;True;0,802999973297
VEH1985w;experiment;2017-01-26-09-19-31;6,0;19,0;-100;0,0;2,0;1,0;3,0;row;1,0;False;False;False;1,84999990463;True;0,963000059128
VEH1985w;experiment;2017-01-26-09-19-31;6,0;20,0;-100;2,0;1,0;3,0;0,0;row;0,0;True;True;True;1,41699981689;True;0,736000061035
VEH1985w;experiment;2017-01-26-09-19-31;6,0;21,0;-100;3,0;2,0;1,0;0,0;row;1,0;False;False;False;1,68299984932;True;1,23000001907
VEH1985w;experiment;2017-01-26-09-19-31;6,0;22,0;-100;3,0;2,0;0,0;1,0;column;0,0;False;True;False;2,117000103;True;0,65399980545
VEH1985w;experiment;2017-01-26-09-19-31;6,0;23,0;-100;0,0;1,0;3,0;2,0;column;0,0;False;True;False;2,44899988174;True;0,700000047684
VEH1985w;experiment;2017-01-26-09-19-31;6,0;24,0;-100;0,0;1,0;2,0;3,0;row;0,0;True;False;True;2,06200003624;True;0,697999954224
VEH1985w;experiment;2017-01-26-09-19-31;6,0;25,0;-100;2,0;1,0;3,0;0,0;column;1,0;True;True;True;1,117000103;True;1,43400001526
VEH1985w;experiment;2017-01-26-09-19-31;6,0;26,0;-100;3,0;1,0;0,0;2,0;row;0,0;False;False;False;1,81699991226;True;1,2009999752
VEH1985w;experiment;2017-01-26-09-19-31;6,0;27,0;-100;1,0;0,0;3,0;2,0;column;0,0;False;False;False;2,04999995232;True;0,833999872208
VEH1985w;experiment;2017-01-26-09-19-31;6,0;28,0;-100;3,0;1,0;2,0;0,0;row;1,0;True;True;False;2,08200001717;False;0,901999950409
VEH1985w;experiment;2017-01-26-09-19-31;6,0;29,0;-100;0,0;3,0;1,0;2,0;row;1,0;True;True;False;2,11800003052;False;1,19099998474
VEH1985w;experiment;2017-01-26-09-19-31;6,0;30,0;-100;2,0;3,0;0,0;1,0;row;1,0;True;False;True;1,81699991226;True;0,725000143051
VEH1985w;experiment;2017-01-26-09-19-31;6,0;31,0;-100;0,0;3,0;2,0;1,0;row;0,0;True;False;True;1,14800000191;True;1,46700000763
VEH1985w;experiment;2017-01-26-09-19-31;6,0;32,0;-100;1,0;3,0;2,0;0,0;column;0,0;True;True;False;1,25;False;0,832000017166
VEH1985w;experiment;2017-01-26-09-19-31;6,0;33,0;-100;2,0;1,0;0,0;3,0;column;1,0;False;True;False;2,11699986458;True;0,963999986649
VEH1985w;experiment;2017-01-26-09-19-31;6,0;34,0;-100;1,0;3,0;2,0;0,0;row;1,0;True;False;True;2,18300008774;True;1,26200008392
VEH1985w;experiment;2017-01-26-09-19-31;6,0;35,0;-100;2,0;1,0;3,0;0,0;row;1,0;False;False;False;3,1130001545;True;1,26999998093
VEH1985w;experiment;2017-01-26-09-19-31;6,0;36,0;-100;1,0;2,0;0,0;3,0;row;0,0;False;True;False;1,58300018311;True;1,00199985504
VEH1985w;experiment;2017-01-26-09-19-31;6,0;37,0;-100;0,0;1,0;2,0;3,0;column;0,0;True;False;True;0,815999984741;True;1,43499994278
VEH1985w;experiment;2017-01-26-09-19-31;6,0;38,0;-100;0,0;2,0;3,0;1,0;row;0,0;False;True;False;1,48300004005;True;0,904000043869
VEH1985w;experiment;2017-01-26-09-19-31;6,0;39,0;-100;1,0;3,0;0,0;2,0;column;1,0;False;True;False;1,54999995232;True;1,13399982452
VEH1985w;experiment;2017-01-26-09-19-31;6,0;40,0;-100;0,0;3,0;1,0;2,0;column;1,0;True;True;True;0,816999912262;True;1,12800002098
VEH1985w;experiment;2017-01-26-09-19-31;6,0;41,0;-100;2,0;0,0;1,0;3,0;column;0,0;True;False;True;1,25;True;1,03600001335
VEH1985w;experiment;2017-01-26-09-19-31;6,0;42,0;-100;1,0;3,0;0,0;2,0;row;0,0;False;False;False;1,41699981689;True;0,638000011444
VEH1985w;experiment;2017-01-26-09-19-31;6,0;43,0;-100;0,0;3,0;1,0;2,0;column;1,0;False;True;False;1,61599993706;True;1,36100006104
VEH1985w;experiment;2017-01-26-09-19-31;6,0;44,0;-100;2,0;0,0;3,0;1,0;column;0,0;False;True;True;1,15000009537;False;0,96599984169
VEH1985w;experiment;2017-01-26-09-19-31;6,0;45,0;-100;1,0;0,0;2,0;3,0;column;1,0;False;True;False;1,41799998283;True;1,06500005722
VEH1985w;experiment;2017-01-26-09-19-31;6,0;46,0;-100;0,0;2,0;1,0;3,0;column;1,0;False;False;False;1,55000019073;True;1,33599996567
VEH1985w;experiment;2017-01-26-09-19-31;6,0;47,0;-100;1,0;2,0;3,0;0,0;column;1,0;True;False;True;0,851000070572;True;0,93499994278
VEH1985w;experiment;2017-01-26-09-19-31;6,0;48,0;-100;2,0;0,0;3,0;1,0;row;1,0;True;True;False;1,45000004768;False;0,865000009537
VEH1985w;experiment;2017-01-26-09-19-31;7,0;1,0;-100;3,0;1,0;0,0;2,0;column;0,0;False;True;False;1,98300004005;True;0,636000156403
VEH1985w;experiment;2017-01-26-09-19-31;7,0;2,0;-100;2,0;3,0;1,0;0,0;column;0,0;False;True;False;1,98399996758;True;1,23600006104
VEH1985w;experiment;2017-01-26-09-19-31;7,0;3,0;-100;0,0;3,0;2,0;1,0;row;1,0;True;False;False;1,18400001526;False;1,06599998474
VEH1985w;experiment;2017-01-26-09-19-31;7,0;4,0;-100;0,0;3,0;1,0;2,0;column;0,0;True;True;True;1,54999995232;True;1,29600000381
VEH1985w;experiment;2017-01-26-09-19-31;7,0;5,0;-100;3,0;0,0;2,0;1,0;column;0,0;False;True;False;2,88400006294;True;1,27200007439
VEH1985w;experiment;2017-01-26-09-19-31;7,0;6,0;-100;3,0;0,0;2,0;1,0;row;0,0;True;True;True;1,01600003242;True;0,769000053406
VEH1985w;experiment;2017-01-26-09-19-31;7,0;7,0;-100;2,0;1,0;0,0;3,0;row;0,0;True;False;True;1,54999995232;True;0,726000070572
VEH1985w;experiment;2017-01-26-09-19-31;7,0;8,0;-100;1,0;0,0;2,0;3,0;column;0,0;True;False;True;1,3180000782;True;1,03399991989
VEH1985w;experiment;2017-01-26-09-19-31;7,0;9,0;-100;0,0;1,0;3,0;2,0;column;0,0;True;True;True;1,88300013542;True;0,863000154495
VEH1985w;experiment;2017-01-26-09-19-31;7,0;10,0;-100;3,0;1,0;0,0;2,0;column;1,0;False;False;False;1,882999897;True;0,736000061035
VEH1985w;experiment;2017-01-26-09-19-31;7,0;11,0;-100;0,0;3,0;1,0;2,0;row;0,0;True;False;True;1,18400001526;True;0,766000032425
VEH1985w;experiment;2017-01-26-09-19-31;7,0;12,0;-100;1,0;2,0;0,0;3,0;column;0,0;False;False;False;2,21600008011;True;0,59500002861
VEH1985w;experiment;2017-01-26-09-19-31;7,0;13,0;-100;3,0;0,0;2,0;1,0;row;1,0;True;True;True;1,95000004768;True;0,868999958038
VEH1985w;experiment;2017-01-26-09-19-31;7,0;14,0;-100;1,0;3,0;2,0;0,0;row;1,0;False;True;False;2,15000009537;True;0,863000154495
VEH1985w;experiment;2017-01-26-09-19-31;7,0;15,0;-100;2,0;3,0;0,0;1,0;column;1,0;True;False;True;0,949000120163;True;0,65499997139
VEH1985w;experiment;2017-01-26-09-19-31;7,0;16,0;-100;2,0;1,0;0,0;3,0;row;1,0;True;True;True;1,51600003242;True;1,39700007439
VEH1985w;experiment;2017-01-26-09-19-31;7,0;17,0;-100;2,0;1,0;0,0;3,0;row;1,0;False;False;False;2,11599993706;True;0,999000072479
VEH1985w;experiment;2017-01-26-09-19-31;7,0;18,0;-100;0,0;3,0;2,0;1,0;row;0,0;False;False;False;2,35099983215;True;0,903000116348
VEH1985w;experiment;2017-01-26-09-19-31;7,0;19,0;-100;3,0;2,0;0,0;1,0;column;1,0;False;False;False;1,71600008011;True;0,991000175476
VEH1985w;experiment;2017-01-26-09-19-31;7,0;20,0;-100;0,0;2,0;1,0;3,0;column;0,0;False;False;False;2,87999987602;True;1,2619998455
VEH1985w;experiment;2017-01-26-09-19-31;7,0;21,0;-100;3,0;1,0;0,0;2,0;row;1,0;False;True;False;2,41700005531;True;0,898999929428
VEH1985w;experiment;2017-01-26-09-19-31;7,0;22,0;-100;2,0;1,0;3,0;0,0;row;0,0;False;True;False;2,04800009727;True;1,29500007629
VEH1985w;experiment;2017-01-26-09-19-31;7,0;23,0;-100;3,0;0,0;2,0;1,0;column;1,0;True;False;True;0,750999927521;True;1,39800000191
VEH1985w;experiment;2017-01-26-09-19-31;7,0;24,0;-100;1,0;3,0;2,0;0,0;column;1,0;True;True;True;1,18400001526;True;1,29499983788
VEH1985w;experiment;2017-01-26-09-19-31;7,0;25,0;-100;0,0;2,0;3,0;1,0;column;1,0;False;False;False;1,54999995232;True;1,03799986839
VEH1985w;experiment;2017-01-26-09-19-31;7,0;26,0;-100;1,0;3,0;0,0;2,0;column;0,0;False;False;False;1,18400001526;True;1,43499994278
VEH1985w;experiment;2017-01-26-09-19-31;7,0;27,0;-100;1,0;2,0;0,0;3,0;row;0,0;True;True;False;2,382999897;False;1,20300006866
VEH1985w;experiment;2017-01-26-09-19-31;7,0;28,0;-100;2,0;0,0;3,0;1,0;column;0,0;True;True;True;1,44999980927;True;0,864000082016
VEH1985w;experiment;2017-01-26-09-19-31;7,0;29,0;-100;1,0;3,0;2,0;0,0;column;1,0;False;False;True;1,68400001526;False;0,932000160217
VEH1985w;experiment;2017-01-26-09-19-31;7,0;30,0;-100;3,0;0,0;1,0;2,0;row;0,0;True;True;False;1,58400011063;False;0,964999914169
VEH1985w;experiment;2017-01-26-09-19-31;7,0;31,0;-100;1,0;2,0;3,0;0,0;column;0,0;False;True;False;1,98300004005;True;1,35900020599
VEH1985w;experiment;2017-01-26-09-19-31;7,0;32,0;-100;3,0;1,0;2,0;0,0;column;0,0;False;True;False;2,0150001049;True;0,729999780655
VEH1985w;experiment;2017-01-26-09-19-31;7,0;33,0;-100;0,0;1,0;2,0;3,0;column;0,0;False;False;False;1,94999980927;True;0,56500005722
VEH1985w;experiment;2017-01-26-09-19-31;7,0;34,0;-100;2,0;3,0;0,0;1,0;row;0,0;False;False;False;2,28400015831;True;0,59299993515
VEH1985w;experiment;2017-01-26-09-19-31;7,0;35,0;-100;1,0;3,0;0,0;2,0;row;0,0;True;True;True;1,28200006485;True;0,633000135422
VEH1985w;experiment;2017-01-26-09-19-31;7,0;36,0;-100;1,0;0,0;2,0;3,0;row;0,0;True;True;False;1,78399991989;False;0,933000087738
VEH1985w;experiment;2017-01-26-09-19-31;7,0;37,0;-100;3,0;0,0;2,0;1,0;column;0,0;True;True;True;1,64800000191;True;1,33699989319
VEH1985w;experiment;2017-01-26-09-19-31;7,0;38,0;-100;2,0;1,0;3,0;0,0;column;1,0;False;False;False;1,44899988174;True;1,4240000248
VEH1985w;experiment;2017-01-26-09-19-31;7,0;39,0;-100;1,0;3,0;0,0;2,0;column;0,0;True;False;True;1,15100002289;True;1,5039999485
VEH1985w;experiment;2017-01-26-09-19-31;7,0;40,0;-100;2,0;3,0;0,0;1,0;column;1,0;False;True;False;3,28399991989;True;1,43700003624
VEH1985w;experiment;2017-01-26-09-19-31;7,0;41,0;-100;1,0;2,0;3,0;0,0;row;0,0;False;True;False;1,88499999046;True;1,33599996567
VEH1985w;experiment;2017-01-26-09-19-31;7,0;42,0;-100;2,0;1,0;0,0;3,0;column;0,0;False;False;False;1,58299994469;True;1,10100007057
VEH1985w;experiment;2017-01-26-09-19-31;7,0;43,0;-100;2,0;3,0;0,0;1,0;column;0,0;True;False;True;0,749000072479;True;1,13599991798
VEH1985w;experiment;2017-01-26-09-19-31;7,0;44,0;-100;3,0;0,0;1,0;2,0;column;0,0;True;False;True;1,68300008774;True;1,13599991798
VEH1985w;experiment;2017-01-26-09-19-31;7,0;45,0;-100;3,0;2,0;1,0;0,0;column;0,0;True;True;True;1,91700005531;True;1,06700015068
VEH1985w;experiment;2017-01-26-09-19-31;7,0;46,0;-100;0,0;3,0;2,0;1,0;column;0,0;False;False;False;3,14899992943;True;1,50099992752
VEH1985w;experiment;2017-01-26-09-19-31;7,0;47,0;-100;1,0;2,0;0,0;3,0;column;1,0;True;False;False;1,617000103;False;0,563999891281
VEH1985w;experiment;2017-01-26-09-19-31;7,0;48,0;-100;0,0;2,0;3,0;1,0;column;0,0;False;True;False;1,38300013542;True;1,49799990654
VEH1985w;experiment;2017-01-26-09-19-31;8,0;1,0;1000;1,0;2,0;0,0;3,0;column;0,0;False;False;False;1,30100011826;True;0,667999982834
VEH1985w;experiment;2017-01-26-09-19-31;8,0;2,0;1000;1,0;2,0;3,0;0,0;row;1,0;True;True;True;2,30000019073;True;0,632999897003
VEH1985w;experiment;2017-01-26-09-19-31;8,0;3,0;1000;3,0;0,0;2,0;1,0;row;1,0;False;False;False;1,56699991226;True;0,964999914169
VEH1985w;experiment;2017-01-26-09-19-31;8,0;4,0;1000;2,0;1,0;3,0;0,0;row;1,0;True;False;True;0,733000040054;True;0,55999994278
VEH1985w;experiment;2017-01-26-09-19-31;8,0;5,0;1000;3,0;0,0;1,0;2,0;row;1,0;True;False;True;0,667000055313;True;0,93499994278
VEH1985w;experiment;2017-01-26-09-19-31;8,0;6,0;1000;0,0;3,0;1,0;2,0;row;1,0;True;False;True;1,83400011063;True;1,03200006485
VEH1985w;experiment;2017-01-26-09-19-31;8,0;7,0;1000;0,0;3,0;1,0;2,0;row;1,0;False;True;False;1,39999985695;True;0,931999921799
VEH1985w;experiment;2017-01-26-09-19-31;8,0;8,0;1000;1,0;0,0;2,0;3,0;row;0,0;True;False;True;1,66799998283;True;0,799000024796
VEH1985w;experiment;2017-01-26-09-19-31;8,0;9,0;1000;1,0;3,0;2,0;0,0;column;0,0;False;True;False;1,73199987411;True;0,733999967575
VEH1985w;experiment;2017-01-26-09-19-31;8,0;10,0;1000;3,0;1,0;2,0;0,0;row;0,0;True;True;True;0,865999937057;True;0,637000083923
VEH1985w;experiment;2017-01-26-09-19-31;8,0;11,0;1000;2,0;3,0;1,0;0,0;row;1,0;False;True;False;1,83300018311;True;1,10500001907
VEH1985w;experiment;2017-01-26-09-19-31;8,0;12,0;1000;2,0;3,0;1,0;0,0;column;0,0;False;True;False;1,83399987221;True;0,862999916077
VEH1985w;experiment;2017-01-26-09-19-31;8,0;13,0;1000;3,0;1,0;2,0;0,0;column;0,0;True;False;True;2,23300004005;True;1,15899991989
VEH1985w;experiment;2017-01-26-09-19-31;8,0;14,0;1000;1,0;3,0;0,0;2,0;row;0,0;True;False;True;1,66700005531;True;0,667999982834
VEH1985w;experiment;2017-01-26-09-19-31;8,0;15,0;1000;3,0;1,0;2,0;0,0;column;1,0;False;False;False;2,09899997711;True;0,934000015259
VEH1985w;experiment;2017-01-26-09-19-31;8,0;16,0;1000;2,0;0,0;1,0;3,0;column;0,0;False;True;False;2,36599993706;True;1,09799981117
VEH1985w;experiment;2017-01-26-09-19-31;8,0;17,0;1000;1,0;3,0;2,0;0,0;row;0,0;True;False;True;2,13400006294;True;0,832000017166
VEH1985w;experiment;2017-01-26-09-19-31;8,0;18,0;1000;0,0;2,0;3,0;1,0;row;1,0;False;True;False;2,89999985695;True;0,701000213623
VEH1985w;experiment;2017-01-26-09-19-31;8,0;19,0;1000;3,0;0,0;1,0;2,0;column;0,0;False;True;False;1,96600008011;True;0,666999816895
VEH1985w;experiment;2017-01-26-09-19-31;8,0;20,0;1000;0,0;3,0;1,0;2,0;column;1,0;True;True;False;2,46700000763;False;1,33300018311
VEH1985w;experiment;2017-01-26-09-19-31;8,0;21,0;1000;1,0;0,0;2,0;3,0;column;0,0;True;True;False;2,20000004768;False;1,17000007629
VEH1985w;experiment;2017-01-26-09-19-31;8,0;22,0;1000;1,0;2,0;0,0;3,0;column;0,0;True;True;True;0,766999959946;True;1,43400001526
VEH1985w;experiment;2017-01-26-09-19-31;8,0;23,0;1000;0,0;3,0;2,0;1,0;column;1,0;False;True;False;1,63399982452;True;0,631000041962
VEH1985w;experiment;2017-01-26-09-19-31;8,0;24,0;1000;1,0;2,0;0,0;3,0;row;0,0;True;True;False;1,69900012016;False;0,601000070572
VEH1985w;experiment;2017-01-26-09-19-31;8,0;25,0;1000;0,0;1,0;3,0;2,0;column;0,0;True;False;True;1,03299999237;True;0,671000003815
VEH1985w;experiment;2017-01-26-09-19-31;8,0;26,0;1000;2,0;0,0;3,0;1,0;row;1,0;False;True;False;1,53299999237;True;1,49799990654
VEH1985w;experiment;2017-01-26-09-19-31;8,0;27,0;1000;3,0;2,0;1,0;0,0;column;0,0;True;True;False;1,59999990463;False;0,867000102997
VEH1985w;experiment;2017-01-26-09-19-31;8,0;28,0;1000;3,0;0,0;2,0;1,0;row;0,0;False;True;False;2,26700019836;True;0,628999948502
VEH1985w;experiment;2017-01-26-09-19-31;8,0;29,0;1000;1,0;3,0;0,0;2,0;column;0,0;True;True;True;2,06700015068;True;1,36899995804
VEH1985w;experiment;2017-01-26-09-19-31;8,0;30,0;1000;0,0;1,0;3,0;2,0;row;1,0;True;True;False;2,03299999237;False;1,07299995422
VEH1985w;experiment;2017-01-26-09-19-31;8,0;31,0;1000;1,0;2,0;3,0;0,0;column;0,0;True;True;True;1,06599998474;True;1,23500013351
VEH1985w;experiment;2017-01-26-09-19-31;8,0;32,0;1000;1,0;3,0;0,0;2,0;column;0,0;False;False;False;2,16600012779;True;0,567000150681
VEH1985w;experiment;2017-01-26-09-19-31;8,0;33,0;1000;2,0;1,0;0,0;3,0;column;1,0;True;True;True;0,733000040054;True;0,5609998703
VEH1985w;experiment;2017-01-26-09-19-31;8,0;34,0;1000;1,0;2,0;3,0;0,0;row;0,0;True;True;True;0,766000032425;True;0,765999794006
VEH1985w;experiment;2017-01-26-09-19-31;8,0;35,0;1000;3,0;1,0;0,0;2,0;column;1,0;False;False;True;6,06599998474;False;0,634999990463
VEH1985w;experiment;2017-01-26-09-19-31;8,0;36,0;1000;1,0;0,0;3,0;2,0;column;0,0;True;False;True;2,26699995995;True;0,864000082016
VEH1985w;experiment;2017-01-26-09-19-31;8,0;37,0;1000;3,0;2,0;0,0;1,0;column;0,0;True;False;True;1,36600017548;True;1,09400010109
VEH1985w;experiment;2017-01-26-09-19-31;8,0;38,0;1000;3,0;0,0;2,0;1,0;column;1,0;True;True;True;0,700000047684;True;1,43400001526
VEH1985w;experiment;2017-01-26-09-19-31;8,0;39,0;1000;3,0;0,0;2,0;1,0;column;1,0;False;True;False;1,90000009537;True;1,0680000782
VEH1985w;experiment;2017-01-26-09-19-31;8,0;40,0;1000;0,0;2,0;3,0;1,0;column;0,0;False;False;False;2,53299999237;True;0,832000017166
VEH1985w;experiment;2017-01-26-09-19-31;8,0;41,0;1000;1,0;0,0;3,0;2,0;row;1,0;True;False;True;1,33299994469;True;0,703999996185
VEH1985w;experiment;2017-01-26-09-19-31;8,0;42,0;1000;2,0;0,0;1,0;3,0;column;0,0;True;False;True;0,967000007629;True;1,13400006294
VEH1985w;experiment;2017-01-26-09-19-31;8,0;43,0;1000;0,0;2,0;1,0;3,0;row;0,0;False;False;False;1,86600017548;True;1,15899991989
VEH1985w;experiment;2017-01-26-09-19-31;8,0;44,0;1000;0,0;1,0;2,0;3,0;row;0,0;True;True;True;0,799999952316;True;0,958000183105
VEH1985w;experiment;2017-01-26-09-19-31;8,0;45,0;1000;3,0;0,0;2,0;1,0;column;0,0;True;False;False;1,96799993515;False;1,19799995422
VEH1985w;experiment;2017-01-26-09-19-31;8,0;46,0;1000;3,0;2,0;1,0;0,0;row;1,0;False;True;False;2,39899992943;True;0,797999858856
VEH1985w;experiment;2017-01-26-09-19-31;8,0;47,0;1000;0,0;2,0;3,0;1,0;column;1,0;True;False;True;0,833000183105;True;1,19599986076
VEH1985w;experiment;2017-01-26-09-19-31;8,0;48,0;1000;3,0;2,0;1,0;0,0;column;1,0;True;False;True;0,832999944687;True;0,567999839783
VEH1985w;experiment;2017-01-26-09-19-31;9,0;1,0;100;0,0;3,0;2,0;1,0;row;0,0;True;False;False;1,53299999237;False;1,46000003815
VEH1985w;experiment;2017-01-26-09-19-31;9,0;2,0;100;0,0;1,0;2,0;3,0;row;1,0;False;True;False;2,23399996758;True;0,729000091553
VEH1985w;experiment;2017-01-26-09-19-31;9,0;3,0;100;2,0;0,0;1,0;3,0;row;0,0;False;False;False;1,83400011063;True;0,793999910355
VEH1985w;experiment;2017-01-26-09-19-31;9,0;4,0;100;0,0;3,0;1,0;2,0;column;1,0;False;True;False;2,367000103;True;0,636999845505
VEH1985w;experiment;2017-01-26-09-19-31;9,0;5,0;100;3,0;2,0;1,0;0,0;column;0,0;False;False;False;1,89999985695;True;1,03499984741
VEH1985w;experiment;2017-01-26-09-19-31;9,0;6,0;100;1,0;2,0;0,0;3,0;row;0,0;False;False;False;1,66699981689;True;0,634999990463
VEH1985w;experiment;2017-01-26-09-19-31;9,0;7,0;100;2,0;1,0;0,0;3,0;column;0,0;True;True;True;1,93299984932;True;0,696000099182
VEH1985w;experiment;2017-01-26-09-19-31;9,0;8,0;100;0,0;1,0;2,0;3,0;column;0,0;True;False;True;2,13199996948;True;0,903000116348
VEH1985w;experiment;2017-01-26-09-19-31;9,0;9,0;100;3,0;0,0;2,0;1,0;row;0,0;False;False;False;1,76499986649;True;1,06999993324
VEH1985w;experiment;2017-01-26-09-19-31;9,0;10,0;100;3,0;0,0;2,0;1,0;column;0,0;False;False;False;2,29800009727;True;0,868999958038
VEH1985w;experiment;2017-01-26-09-19-31;9,0;11,0;100;1,0;2,0;3,0;0,0;column;0,0;False;False;False;2,46800017357;True;1,09099984169
VEH1985w;experiment;2017-01-26-09-19-31;9,0;12,0;100;0,0;2,0;1,0;3,0;column;1,0;False;True;False;2,132999897;True;1,26699995995
VEH1985w;experiment;2017-01-26-09-19-31;9,0;13,0;100;1,0;3,0;2,0;0,0;row;1,0;False;False;False;2,00099992752;True;1,46000003815
VEH1985w;experiment;2017-01-26-09-19-31;9,0;14,0;100;2,0;1,0;3,0;0,0;column;1,0;False;True;False;2,10000014305;True;0,766999959946
VEH1985w;experiment;2017-01-26-09-19-31;9,0;15,0;100;0,0;2,0;1,0;3,0;column;0,0;True;False;True;0,900000095367;True;0,567000150681
VEH1985w;experiment;2017-01-26-09-19-31;9,0;16,0;100;2,0;1,0;3,0;0,0;row;0,0;True;False;False;1,80000019073;False;1,39899992943
VEH1985w;experiment;2017-01-26-09-19-31;9,0;17,0;100;3,0;0,0;1,0;2,0;column;1,0;False;True;False;1,93499994278;True;1,13199996948
VEH1985w;experiment;2017-01-26-09-19-31;9,0;18,0;100;3,0;0,0;2,0;1,0;row;0,0;True;True;True;4,0;True;1,23099994659
VEH1985w;experiment;2017-01-26-09-19-31;9,0;19,0;100;3,0;1,0;0,0;2,0;row;0,0;True;False;True;0,967000007629;True;0,592000007629
VEH1985w;experiment;2017-01-26-09-19-31;9,0;20,0;100;2,0;3,0;1,0;0,0;row;0,0;False;True;False;1,73400020599;True;0,892999887466
VEH1985w;experiment;2017-01-26-09-19-31;9,0;21,0;100;3,0;1,0;0,0;2,0;row;1,0;True;True;True;2,83399987221;True;0,664999961853
VEH1985w;experiment;2017-01-26-09-19-31;9,0;22,0;100;3,0;0,0;1,0;2,0;row;1,0;True;True;False;2,66900014877;False;1,50100016594
VEH1985w;experiment;2017-01-26-09-19-31;9,0;23,0;100;0,0;2,0;3,0;1,0;row;0,0;True;False;True;0,799999952316;True;0,932000160217
VEH1985w;experiment;2017-01-26-09-19-31;9,0;24,0;100;1,0;3,0;0,0;2,0;row;1,0;False;True;False;2,06699991226;True;0,866000175476
VEH1985w;experiment;2017-01-26-09-19-31;9,0;25,0;100;1,0;0,0;2,0;3,0;row;1,0;False;False;False;1,66700005531;True;0,868999958038
VEH1985w;experiment;2017-01-26-09-19-31;9,0;26,0;100;2,0;3,0;1,0;0,0;column;0,0;False;True;False;1,16600012779;True;1,08500003815
VEH1985w;experiment;2017-01-26-09-19-31;9,0;27,0;100;2,0;1,0;3,0;0,0;column;1,0;True;False;True;1,10100007057;True;1,46300005913
VEH1985w;experiment;2017-01-26-09-19-31;9,0;28,0;100;2,0;0,0;3,0;1,0;row;1,0;True;False;True;2,2990000248;True;1,50499987602
VEH1985w;experiment;2017-01-26-09-19-31;9,0;29,0;100;3,0;2,0;1,0;0,0;row;1,0;True;False;False;1,63300013542;False;0,726999998093
VEH1985w;experiment;2017-01-26-09-19-31;9,0;30,0;100;3,0;2,0;0,0;1,0;column;0,0;True;True;True;0,799999952316;True;0,601000070572
VEH1985w;experiment;2017-01-26-09-19-31;9,0;31,0;100;3,0;2,0;1,0;0,0;column;1,0;True;False;True;2,06699991226;True;1,26200008392
VEH1985w;experiment;2017-01-26-09-19-31;9,0;32,0;100;0,0;3,0;2,0;1,0;column;0,0;False;True;False;2,39999985695;True;1,26699995995
VEH1985w;experiment;2017-01-26-09-19-31;9,0;33,0;100;1,0;2,0;3,0;0,0;column;0,0;True;True;True;3,33399987221;True;0,533999919891
VEH1985w;experiment;2017-01-26-09-19-31;9,0;34,0;100;3,0;0,0;2,0;1,0;row;1,0;False;True;False;1,66599988937;True;1,50200009346
VEH1985w;experiment;2017-01-26-09-19-31;9,0;35,0;100;2,0;0,0;1,0;3,0;row;1,0;True;True;True;1,23300004005;True;0,56299996376
VEH1985w;experiment;2017-01-26-09-19-31;9,0;36,0;100;0,0;1,0;3,0;2,0;row;1,0;True;True;True;1,26399993896;True;0,732000112534
VEH1985w;experiment;2017-01-26-09-19-31;9,0;37,0;100;1,0;0,0;3,0;2,0;row;1,0;False;False;False;1,1320002079;True;1,53199982643
VEH1985w;experiment;2017-01-26-09-19-31;9,0;38,0;100;0,0;2,0;1,0;3,0;row;1,0;True;True;False;3,06700015068;False;0,532999992371
VEH1985w;experiment;2017-01-26-09-19-31;9,0;39,0;100;2,0;0,0;3,0;1,0;row;0,0;True;False;True;0,766000032425;True;0,960000038147
VEH1985w;experiment;2017-01-26-09-19-31;9,0;40,0;100;1,0;2,0;0,0;3,0;row;1,0;False;False;False;2,09999990463;True;0,828000068665
VEH1985w;experiment;2017-01-26-09-19-31;9,0;41,0;100;1,0;3,0;2,0;0,0;row;1,0;True;True;True;2,06599998474;True;1,06599998474
VEH1985w;experiment;2017-01-26-09-19-31;9,0;42,0;100;0,0;2,0;1,0;3,0;column;0,0;False;True;True;2,40100002289;False;1,46700000763
VEH1985w;experiment;2017-01-26-09-19-31;9,0;43,0;100;2,0;0,0;1,0;3,0;column;1,0;False;False;False;1,69999980927;True;0,601000070572
VEH1985w;experiment;2017-01-26-09-19-31;9,0;44,0;100;3,0;2,0;0,0;1,0;column;1,0;True;True;False;2,66700005531;False;1,37000012398
VEH1985w;experiment;2017-01-26-09-19-31;9,0;45,0;100;3,0;0,0;1,0;2,0;row;0,0;True;True;True;0,901000022888;True;0,701999902725
VEH1985w;experiment;2017-01-26-09-19-31;9,0;46,0;100;1,0;2,0;0,0;3,0;column;1,0;False;False;False;2,10100007057;True;1,32999992371
VEH1985w;experiment;2017-01-26-09-19-31;9,0;47,0;100;1,0;0,0;2,0;3,0;row;0,0;True;False;True;1,63400006294;True;1,16899991035
VEH1985w;experiment;2017-01-26-09-19-31;9,0;48,0;100;2,0;1,0;3,0;0,0;column;0,0;True;True;True;3,16699981689;True;1,19800019264
VEH1985w;experiment;2017-01-26-09-19-31;10,0;1,0;-100;0,0;3,0;1,0;2,0;row;0,0;False;True;False;1,14999985695;True;0,566999912262
VEH1985w;experiment;2017-01-26-09-19-31;10,0;2,0;-100;0,0;1,0;2,0;3,0;row;1,0;False;False;False;2,18300008774;True;0,799999952316
VEH1985w;experiment;2017-01-26-09-19-31;10,0;3,0;-100;3,0;0,0;1,0;2,0;column;1,0;False;False;False;1,78399991989;True;0,967000007629
VEH1985w;experiment;2017-01-26-09-19-31;10,0;4,0;-100;3,0;1,0;2,0;0,0;row;0,0;False;True;False;2,25;True;0,532999992371
VEH1985w;experiment;2017-01-26-09-19-31;10,0;5,0;-100;1,0;2,0;3,0;0,0;row;1,0;True;False;True;1,5490000248;True;1,46800017357
VEH1985w;experiment;2017-01-26-09-19-31;10,0;6,0;-100;3,0;2,0;0,0;1,0;row;1,0;True;True;True;3,08299994469;True;1,40200018883
VEH1985w;experiment;2017-01-26-09-19-31;10,0;7,0;-100;1,0;0,0;3,0;2,0;row;1,0;True;False;True;1,28399991989;True;1,33700013161
VEH1985w;experiment;2017-01-26-09-19-31;10,0;8,0;-100;2,0;3,0;1,0;0,0;row;0,0;True;False;False;1,98200011253;False;0,666000127792
VEH1985w;experiment;2017-01-26-09-19-31;10,0;9,0;-100;1,0;2,0;0,0;3,0;column;0,0;True;False;True;1,61699986458;True;0,997000217438
VEH1985w;experiment;2017-01-26-09-19-31;10,0;10,0;-100;0,0;2,0;3,0;1,0;row;0,0;True;True;True;1,1819999218;True;0,539000034332
VEH1985w;experiment;2017-01-26-09-19-31;10,0;11,0;-100;2,0;3,0;0,0;1,0;row;0,0;True;True;True;0,882999897003;True;0,539000034332
VEH1985w;experiment;2017-01-26-09-19-31;10,0;12,0;-100;0,0;3,0;2,0;1,0;column;0,0;True;True;True;1,51600003242;True;1,50400018692
VEH1985w;experiment;2017-01-26-09-19-31;10,0;13,0;-100;2,0;3,0;1,0;0,0;row;1,0;True;False;False;1,48399996758;False;1,09800004959
VEH1985w;experiment;2017-01-26-09-19-31;10,0;14,0;-100;3,0;2,0;1,0;0,0;column;1,0;True;True;True;1,11599993706;True;0,868999958038
VEH1985w;experiment;2017-01-26-09-19-31;10,0;15,0;-100;3,0;2,0;1,0;0,0;row;0,0;False;True;False;1,75;True;1,36599993706
VEH1985w;experiment;2017-01-26-09-19-31;10,0;16,0;-100;0,0;1,0;2,0;3,0;column;1,0;True;True;True;0,850000143051;True;0,97000002861
VEH1985w;experiment;2017-01-26-09-19-31;10,0;17,0;-100;0,0;3,0;1,0;2,0;row;1,0;False;True;False;1,41599988937;True;1,02200007439
VEH1985w;experiment;2017-01-26-09-19-31;10,0;18,0;-100;0,0;1,0;3,0;2,0;row;1,0;False;False;False;1,41500020027;True;1,12800002098
VEH1985w;experiment;2017-01-26-09-19-31;10,0;19,0;-100;0,0;1,0;3,0;2,0;column;1,0;False;True;False;1,61599993706;True;0,802999973297
VEH1985w;experiment;2017-01-26-09-19-31;10,0;20,0;-100;2,0;0,0;3,0;1,0;column;1,0;False;False;False;1,68300008774;True;1,09599995613
VEH1985w;experiment;2017-01-26-09-19-31;10,0;21,0;-100;3,0;2,0;1,0;0,0;row;0,0;True;False;True;1,11599993706;True;1,43499994278
VEH1985w;experiment;2017-01-26-09-19-31;10,0;22,0;-100;0,0;2,0;3,0;1,0;row;1,0;False;False;False;1,58400011063;True;1,05800008774
VEH1985w;experiment;2017-01-26-09-19-31;10,0;23,0;-100;2,0;3,0;0,0;1,0;column;0,0;False;False;False;1,41499996185;True;0,637000083923
VEH1985w;experiment;2017-01-26-09-19-31;10,0;24,0;-100;3,0;2,0;1,0;0,0;column;0,0;False;False;False;2,0150001049;True;1,22799992561
VEH1985w;experiment;2017-01-26-09-19-31;10,0;25,0;-100;3,0;1,0;2,0;0,0;row;1,0;False;True;False;1,34899997711;True;0,664999961853
VEH1985w;experiment;2017-01-26-09-19-31;10,0;26,0;-100;0,0;2,0;1,0;3,0;row;1,0;True;False;False;1,01600003242;False;1,05700016022
VEH1985w;experiment;2017-01-26-09-19-31;10,0;27,0;-100;2,0;1,0;3,0;0,0;column;0,0;False;True;False;1,58299994469;True;0,595999956131
VEH1985w;experiment;2017-01-26-09-19-31;10,0;28,0;-100;2,0;3,0;1,0;0,0;column;1,0;False;True;False;1,4509999752;True;1,17100000381
VEH1985w;experiment;2017-01-26-09-19-31;10,0;29,0;-100;2,0;0,0;3,0;1,0;column;1,0;True;True;True;0,881999969482;True;1,37000012398
VEH1985w;experiment;2017-01-26-09-19-31;10,0;30,0;-100;0,0;1,0;3,0;2,0;row;1,0;True;True;False;1,21799993515;False;0,930999994278
VEH1985w;experiment;2017-01-26-09-19-31;10,0;31,0;-100;3,0;2,0;0,0;1,0;column;1,0;True;False;False;1,75;False;1,10300016403
VEH1985w;experiment;2017-01-26-09-19-31;10,0;32,0;-100;2,0;0,0;1,0;3,0;row;1,0;True;True;True;2,38100004196;True;0,765000104904
VEH1985w;experiment;2017-01-26-09-19-31;10,0;33,0;-100;2,0;0,0;3,0;1,0;row;0,0;True;False;True;0,75;True;0,996999979019
VEH1985w;experiment;2017-01-26-09-19-31;10,0;34,0;-100;3,0;2,0;0,0;1,0;row;1,0;False;False;False;1,18400001526;True;1,05399990082
VEH1985w;experiment;2017-01-26-09-19-31;10,0;35,0;-100;3,0;2,0;0,0;1,0;row;0,0;True;True;True;1,48300004005;True;0,865999937057
VEH1985w;experiment;2017-01-26-09-19-31;10,0;36,0;-100;0,0;1,0;2,0;3,0;row;1,0;True;False;True;1,44699978828;True;1,22699999809
VEH1985w;experiment;2017-01-26-09-19-31;10,0;37,0;-100;1,0;3,0;0,0;2,0;column;1,0;True;False;True;2,84999990463;True;0,896999835968
VEH1985w;experiment;2017-01-26-09-19-31;10,0;38,0;-100;0,0;2,0;3,0;1,0;row;1,0;True;False;False;1,54999995232;False;0,669999837875
VEH1985w;experiment;2017-01-26-09-19-31;10,0;39,0;-100;2,0;0,0;3,0;1,0;row;0,0;False;False;False;1,68400001526;True;0,756999969482
VEH1985w;experiment;2017-01-26-09-19-31;10,0;40,0;-100;3,0;2,0;0,0;1,0;row;0,0;False;False;False;2,382999897;True;0,835999965668
VEH1985w;experiment;2017-01-26-09-19-31;10,0;41,0;-100;3,0;0,0;1,0;2,0;row;1,0;False;False;False;1,04999995232;True;1,33500003815
VEH1985w;experiment;2017-01-26-09-19-31;10,0;42,0;-100;2,0;0,0;1,0;3,0;row;0,0;False;True;False;1,67900013924;True;1,46499991417
VEH1985w;experiment;2017-01-26-09-19-31;10,0;43,0;-100;1,0;2,0;3,0;0,0;row;1,0;False;True;False;1,75;True;0,529000043869
VEH1985w;experiment;2017-01-26-09-19-31;10,0;44,0;-100;2,0;3,0;0,0;1,0;row;1,0;False;False;False;1,68299984932;True;0,867000102997
VEH1985w;experiment;2017-01-26-09-19-31;10,0;45,0;-100;1,0;3,0;2,0;0,0;column;0,0;False;False;False;1,5490000248;True;0,689999818802
VEH1985w;experiment;2017-01-26-09-19-31;10,0;46,0;-100;0,0;3,0;2,0;1,0;column;1,0;False;False;False;1,81699991226;True;1,33599996567
VEH1985w;experiment;2017-01-26-09-19-31;10,0;47,0;-100;1,0;0,0;2,0;3,0;row;1,0;True;False;True;0,783999919891;True;1,30200004578
VEH1985w;experiment;2017-01-26-09-19-31;10,0;48,0;-100;3,0;1,0;0,0;2,0;row;1,0;True;True;True;1,18400001526;True;0,628999948502
VEH1985w;experiment;2017-01-26-09-19-31;11,0;1,0;100;2,0;3,0;1,0;0,0;row;0,0;True;True;False;1,09999990463;False;0,936000108719
VEH1985w;experiment;2017-01-26-09-19-31;11,0;2,0;100;0,0;3,0;1,0;2,0;column;0,0;False;True;False;1,03299999237;True;1,19900012016
VEH1985w;experiment;2017-01-26-09-19-31;11,0;3,0;100;2,0;0,0;1,0;3,0;column;0,0;False;True;False;1,06699991226;True;0,802999973297
VEH1985w;experiment;2017-01-26-09-19-31;11,0;4,0;100;3,0;1,0;2,0;0,0;row;0,0;False;True;False;1,03399991989;True;1,03699994087
VEH1985w;experiment;2017-01-26-09-19-31;11,0;5,0;100;0,0;3,0;2,0;1,0;row;0,0;False;True;False;1,06699991226;True;0,766000032425
VEH1985w;experiment;2017-01-26-09-19-31;11,0;6,0;100;1,0;0,0;2,0;3,0;column;1,0;True;False;True;1,63399982452;True;0,636000156403
VEH1985w;experiment;2017-01-26-09-19-31;11,0;7,0;100;1,0;0,0;2,0;3,0;column;0,0;False;False;False;0,832999944687;True;1,47200012207
VEH1985w;experiment;2017-01-26-09-19-31;11,0;8,0;100;2,0;1,0;3,0;0,0;row;0,0;False;True;False;1,09999990463;True;0,770999908447
VEH1985w;experiment;2017-01-26-09-19-31;11,0;9,0;100;3,0;0,0;1,0;2,0;row;0,0;False;False;False;1,89999985695;True;1,06900000572
VEH1985w;experiment;2017-01-26-09-19-31;11,0;10,0;100;1,0;0,0;2,0;3,0;row;0,0;False;False;False;1,43299984932;True;0,588000059128
VEH1985w;experiment;2017-01-26-09-19-31;11,0;11,0;100;3,0;2,0;0,0;1,0;column;0,0;False;True;False;1,20000004768;True;1,33400011063
VEH1985w;experiment;2017-01-26-09-19-31;11,0;12,0;100;3,0;0,0;1,0;2,0;column;1,0;True;True;True;1,0;True;0,865999937057
VEH1985w;experiment;2017-01-26-09-19-31;11,0;13,0;100;1,0;3,0;2,0;0,0;column;1,0;True;False;False;0,93499994278;False;1,4359998703
VEH1985w;experiment;2017-01-26-09-19-31;11,0;14,0;100;0,0;3,0;2,0;1,0;column;1,0;False;True;False;1,53299999237;True;0,724999904633
VEH1985w;experiment;2017-01-26-09-19-31;11,0;15,0;100;3,0;1,0;0,0;2,0;row;1,0;False;True;False;1,59999990463;True;1,32899999619
VEH1985w;experiment;2017-01-26-09-19-31;11,0;16,0;100;1,0;3,0;2,0;0,0;column;0,0;True;False;True;0,634000062943;True;1,10099983215
VEH1985w;experiment;2017-01-26-09-19-31;11,0;17,0;100;2,0;1,0;0,0;3,0;row;0,0;True;True;True;1,20000004768;True;0,697000026703
VEH1985w;experiment;2017-01-26-09-19-31;11,0;18,0;100;1,0;2,0;3,0;0,0;row;1,0;False;False;False;1,29899978638;True;1,17199993134
VEH1985w;experiment;2017-01-26-09-19-31;11,0;19,0;100;3,0;0,0;2,0;1,0;row;1,0;True;False;True;2,06700015068;True;0,836999893188
VEH1985w;experiment;2017-01-26-09-19-31;11,0;20,0;100;0,0;2,0;1,0;3,0;row;0,0;False;False;False;1,46700000763;True;1,10300016403
VEH1985w;experiment;2017-01-26-09-19-31;11,0;21,0;100;3,0;0,0;2,0;1,0;column;1,0;False;False;False;1,53299999237;True;0,865999937057
VEH1985w;experiment;2017-01-26-09-19-31;11,0;22,0;100;1,0;0,0;2,0;3,0;column;0,0;True;True;True;2,06699991226;True;1,1400001049
VEH1985w;experiment;2017-01-26-09-19-31;11,0;23,0;100;1,0;2,0;3,0;0,0;column;1,0;True;True;False;2,39900016785;False;0,766999959946
VEH1985w;experiment;2017-01-26-09-19-31;11,0;24,0;100;3,0;1,0;0,0;2,0;column;1,0;True;True;True;0,933000087738;True;0,964999914169
VEH1985w;experiment;2017-01-26-09-19-31;11,0;25,0;100;2,0;0,0;3,0;1,0;row;0,0;False;False;False;1,93300008774;True;1,25099992752
VEH1985w;experiment;2017-01-26-09-19-31;11,0;26,0;100;1,0;0,0;3,0;2,0;column;1,0;False;False;False;1,76699995995;True;1,46399998665
VEH1985w;experiment;2017-01-26-09-19-31;11,0;27,0;100;0,0;2,0;3,0;1,0;column;0,0;False;False;False;2,20000004768;True;1,33200001717
VEH1985w;experiment;2017-01-26-09-19-31;11,0;28,0;100;0,0;2,0;3,0;1,0;column;1,0;False;False;False;2,03299999237;True;0,733999967575
VEH1985w;experiment;2017-01-26-09-19-31;11,0;29,0;100;3,0;2,0;0,0;1,0;row;0,0;False;True;False;2,16700005531;True;1,50099992752
VEH1985w;experiment;2017-01-26-09-19-31;11,0;30,0;100;3,0;1,0;0,0;2,0;row;0,0;False;True;False;2,20000004768;True;1,33399987221
VEH1985w;experiment;2017-01-26-09-19-31;11,0;31,0;100;2,0;3,0;0,0;1,0;column;0,0;True;True;True;2,79800009727;True;1,33599996567
VEH1985w;experiment;2017-01-26-09-19-31;11,0;32,0;100;1,0;3,0;2,0;0,0;column;0,0;False;False;False;2,30000019073;True;0,769000053406
VEH1985w;experiment;2017-01-26-09-19-31;11,0;33,0;100;2,0;0,0;3,0;1,0;row;1,0;False;False;False;2,93300008774;True;1,03299999237
VEH1985w;experiment;2017-01-26-09-19-31;11,0;34,0;100;0,0;3,0;2,0;1,0;row;1,0;True;False;True;1,46600008011;True;1,39800000191
VEH1985w;experiment;2017-01-26-09-19-31;11,0;35,0;100;3,0;0,0;2,0;1,0;column;0,0;True;False;False;1,83399987221;False;1,40000009537
VEH1985w;experiment;2017-01-26-09-19-31;11,0;36,0;100;0,0;2,0;3,0;1,0;row;1,0;False;False;False;1,46700000763;True;0,728999853134
VEH1985w;experiment;2017-01-26-09-19-31;11,0;37,0;100;3,0;1,0;2,0;0,0;column;0,0;False;True;False;2,86599993706;True;1,03600001335
VEH1985w;experiment;2017-01-26-09-19-31;11,0;38,0;100;2,0;3,0;1,0;0,0;row;1,0;False;True;False;2,09899997711;True;0,792999982834
VEH1985w;experiment;2017-01-26-09-19-31;11,0;39,0;100;0,0;1,0;2,0;3,0;column;0,0;False;True;False;1,53200006485;True;1,39600014687
VEH1985w;experiment;2017-01-26-09-19-31;11,0;40,0;100;2,0;3,0;1,0;0,0;column;1,0;True;True;True;1,06599998474;True;1,0039999485
VEH1985w;experiment;2017-01-26-09-19-31;11,0;41,0;100;2,0;0,0;1,0;3,0;row;0,0;True;False;True;1,76699995995;True;0,634999990463
VEH1985w;experiment;2017-01-26-09-19-31;11,0;42,0;100;0,0;1,0;3,0;2,0;row;0,0;True;False;True;1,33399987221;True;1,23399996758
VEH1985w;experiment;2017-01-26-09-19-31;11,0;43,0;100;2,0;1,0;0,0;3,0;column;1,0;False;False;False;1,83299994469;True;1,16499996185
VEH1985w;experiment;2017-01-26-09-19-31;11,0;44,0;100;2,0;0,0;3,0;1,0;column;0,0;False;False;False;2,40000009537;True;1,33099985123
VEH1985w;experiment;2017-01-26-09-19-31;11,0;45,0;100;1,0;3,0;2,0;0,0;row;0,0;False;False;False;2,39700007439;True;0,93799996376
VEH1985w;experiment;2017-01-26-09-19-31;11,0;46,0;100;0,0;2,0;3,0;1,0;column;0,0;True;False;True;1,46799993515;True;0,927999973297
VEH1985w;experiment;2017-01-26-09-19-31;11,0;47,0;100;2,0;3,0;1,0;0,0;row;1,0;True;True;True;2,26600003242;True;1,03499984741
VEH1985w;experiment;2017-01-26-09-19-31;11,0;48,0;100;2,0;3,0;1,0;0,0;column;0,0;True;True;False;3,40000009537;False;0,996999979019
VEH1985w;experiment;2017-01-26-09-19-31;12,0;1,0;1000;1,0;3,0;0,0;2,0;row;0,0;False;True;False;1,46599984169;True;0,927999973297
VEH1985w;experiment;2017-01-26-09-19-31;12,0;2,0;1000;0,0;3,0;2,0;1,0;column;0,0;False;False;False;1,16599988937;True;1,03200006485
VEH1985w;experiment;2017-01-26-09-19-31;12,0;3,0;1000;0,0;3,0;2,0;1,0;column;0,0;True;False;True;1,46700000763;True;1,4319999218
VEH1985w;experiment;2017-01-26-09-19-31;12,0;4,0;1000;2,0;0,0;3,0;1,0;row;0,0;True;True;True;1,39900016785;True;0,533999919891
VEH1985w;experiment;2017-01-26-09-19-31;12,0;5,0;1000;1,0;3,0;0,0;2,0;row;1,0;False;True;False;1,7990000248;True;1,16799998283
VEH1985w;experiment;2017-01-26-09-19-31;12,0;6,0;1000;0,0;1,0;2,0;3,0;row;0,0;False;True;False;1,76699995995;True;1,09500002861
VEH1985w;experiment;2017-01-26-09-19-31;12,0;7,0;1000;2,0;1,0;0,0;3,0;row;0,0;True;True;True;0,766000032425;True;1,32800006866
VEH1985w;experiment;2017-01-26-09-19-31;12,0;8,0;1000;3,0;2,0;0,0;1,0;column;1,0;True;False;True;1,96500015259;True;1,12800002098
VEH1985w;experiment;2017-01-26-09-19-31;12,0;9,0;1000;1,0;3,0;2,0;0,0;row;0,0;False;False;False;1,43299984932;True;1,0569999218
VEH1985w;experiment;2017-01-26-09-19-31;12,0;10,0;1000;0,0;1,0;3,0;2,0;row;0,0;True;False;True;1,33399987221;True;0,894999980927
VEH1985w;experiment;2017-01-26-09-19-31;12,0;11,0;1000;2,0;1,0;3,0;0,0;column;1,0;False;True;False;1,79999995232;True;0,569000005722
VEH1985w;experiment;2017-01-26-09-19-31;12,0;12,0;1000;3,0;1,0;0,0;2,0;column;0,0;False;True;False;2,06699991226;True;0,598999977112
VEH1985w;experiment;2017-01-26-09-19-31;12,0;13,0;1000;1,0;2,0;0,0;3,0;row;1,0;False;True;False;4,19899988174;True;1,19899988174
VEH1985w;experiment;2017-01-26-09-19-31;12,0;14,0;1000;1,0;3,0;2,0;0,0;row;1,0;False;True;False;1,56599998474;True;0,800000190735
VEH1985w;experiment;2017-01-26-09-19-31;12,0;15,0;1000;0,0;1,0;2,0;3,0;column;1,0;True;False;True;3,83299994469;True;1,26300001144
VEH1985w;experiment;2017-01-26-09-19-31;12,0;16,0;1000;1,0;0,0;2,0;3,0;column;0,0;False;False;False;2,10100007057;True;0,924000024796
VEH1985w;experiment;2017-01-26-09-19-31;12,0;17,0;1000;3,0;0,0;1,0;2,0;row;1,0;False;False;False;1,63300013542;True;0,691999912262
VEH1985w;experiment;2017-01-26-09-19-31;12,0;18,0;1000;2,0;1,0;3,0;0,0;column;0,0;False;True;False;2,0;True;1,00099992752
VEH1985w;experiment;2017-01-26-09-19-31;12,0;19,0;1000;3,0;1,0;2,0;0,0;column;1,0;True;True;True;1,40000009537;True;1,40299987793
VEH1985w;experiment;2017-01-26-09-19-31;12,0;20,0;1000;2,0;1,0;0,0;3,0;row;1,0;True;False;False;2,63300013542;False;1,46100020409
VEH1985w;experiment;2017-01-26-09-19-31;12,0;21,0;1000;0,0;1,0;2,0;3,0;column;1,0;False;False;False;1,86599993706;True;1,17000007629
VEH1985w;experiment;2017-01-26-09-19-31;12,0;22,0;1000;3,0;0,0;1,0;2,0;row;0,0;False;True;False;2,46799993515;True;0,601000070572
VEH1985w;experiment;2017-01-26-09-19-31;12,0;23,0;1000;3,0;1,0;0,0;2,0;column;1,0;True;True;True;1,132999897;True;0,535000085831
VEH1985w;experiment;2017-01-26-09-19-31;12,0;24,0;1000;3,0;0,0;1,0;2,0;column;1,0;True;True;True;2,66600012779;True;0,625
VEH1985w;experiment;2017-01-26-09-19-31;12,0;25,0;1000;2,0;1,0;0,0;3,0;column;0,0;True;False;True;2,86800003052;True;1,17100000381
VEH1985w;experiment;2017-01-26-09-19-31;12,0;26,0;1000;1,0;2,0;3,0;0,0;row;0,0;False;True;False;1,89899992943;True;1,33099985123
VEH1985w;experiment;2017-01-26-09-19-31;12,0;27,0;1000;3,0;1,0;0,0;2,0;row;0,0;False;True;False;1,96700000763;True;1,32999992371
VEH1985w;experiment;2017-01-26-09-19-31;12,0;28,0;1000;2,0;0,0;3,0;1,0;row;1,0;True;True;True;1,43400001526;True;0,864000082016
VEH1985w;experiment;2017-01-26-09-19-31;12,0;29,0;1000;3,0;0,0;2,0;1,0;row;1,0;True;True;True;1,56699991226;True;0,936000108719
VEH1985w;experiment;2017-01-26-09-19-31;12,0;30,0;1000;2,0;1,0;3,0;0,0;row;0,0;True;False;True;1,0;True;1,3029999733
VEH1985w;experiment;2017-01-26-09-19-31;12,0;31,0;1000;1,0;0,0;2,0;3,0;row;1,0;True;False;True;2,36800003052;True;1,20499992371
VEH1985w;experiment;2017-01-26-09-19-31;12,0;32,0;1000;3,0;1,0;2,0;0,0;row;1,0;False;False;False;1,83300018311;True;1,49699997902
VEH1985w;experiment;2017-01-26-09-19-31;12,0;33,0;1000;1,0;3,0;2,0;0,0;column;1,0;True;False;True;1,63300013542;True;1,2990000248
VEH1985w;experiment;2017-01-26-09-19-31;12,0;34,0;1000;1,0;2,0;0,0;3,0;row;1,0;True;True;False;1,46799993515;False;1,46399998665
VEH1985w;experiment;2017-01-26-09-19-31;12,0;35,0;1000;3,0;0,0;1,0;2,0;column;1,0;False;True;False;1,83400011063;True;1,03699994087
VEH1985w;experiment;2017-01-26-09-19-31;12,0;36,0;1000;1,0;0,0;3,0;2,0;row;0,0;False;False;False;2,2990000248;True;1,46700000763
VEH1985w;experiment;2017-01-26-09-19-31;12,0;37,0;1000;2,0;0,0;3,0;1,0;column;0,0;True;False;True;2,06699991226;True;1,13000011444
VEH1985w;experiment;2017-01-26-09-19-31;12,0;38,0;1000;1,0;2,0;3,0;0,0;column;1,0;False;True;False;1,49900007248;True;0,770000219345
VEH1985w;experiment;2017-01-26-09-19-31;12,0;39,0;1000;2,0;0,0;1,0;3,0;row;1,0;False;False;False;1,66700005531;True;1,33899998665
VEH1985w;experiment;2017-01-26-09-19-31;12,0;40,0;1000;0,0;2,0;1,0;3,0;row;0,0;True;False;False;1,16799998283;False;1,20199990273
VEH1985w;experiment;2017-01-26-09-19-31;12,0;41,0;1000;0,0;2,0;3,0;1,0;column;0,0;True;False;True;1,10000014305;True;1,49500012398
VEH1985w;experiment;2017-01-26-09-19-31;12,0;42,0;1000;0,0;3,0;2,0;1,0;column;1,0;True;True;True;0,866999864578;True;1,03299999237
VEH1985w;experiment;2017-01-26-09-19-31;12,0;43,0;1000;3,0;0,0;2,0;1,0;column;0,0;False;True;False;1,20000004768;True;0,760999917984
VEH1985w;experiment;2017-01-26-09-19-31;12,0;44,0;1000;1,0;0,0;2,0;3,0;row;0,0;False;False;False;1,19999980927;True;1,38999986649
VEH1985w;experiment;2017-01-26-09-19-31;12,0;45,0;1000;3,0;2,0;0,0;1,0;row;1,0;True;False;False;1,83299994469;False;0,763000011444
VEH1985w;experiment;2017-01-26-09-19-31;12,0;46,0;1000;0,0;1,0;2,0;3,0;row;1,0;False;True;False;1,66599988937;True;1,26900005341
VEH1985w;experiment;2017-01-26-09-19-31;12,0;47,0;1000;0,0;2,0;3,0;1,0;row;0,0;False;True;False;1,96599984169;True;0,693000078201
VEH1985w;experiment;2017-01-26-09-19-31;12,0;48,0;1000;0,0;1,0;3,0;2,0;column;0,0;False;True;False;2,13199996948;True;1,3290002346
