Observer;Condition;SessionID;Block;Trial;COA;Color0;Color1;Color2;Color3;Target;Which;Match;FlipComplimentary;Response;RT;Correct;OnsetDelay
WPM1996w;experiment;2017-04-28-13-43-48;1,0;1,0;-100;0,0;1,0;2,0;3,0;row;0,0;True;False;True;2,94499993324;True;0,976000070572
WPM1996w;experiment;2017-04-28-13-43-48;1,0;2,0;-100;2,0;1,0;0,0;3,0;row;0,0;False;False;False;3,35000014305;True;0,536000013351
WPM1996w;experiment;2017-04-28-13-43-48;1,0;3,0;-100;3,0;0,0;1,0;2,0;column;0,0;True;True;True;2,84899997711;True;1,33200001717
WPM1996w;experiment;2017-04-28-13-43-48;1,0;4,0;-100;0,0;3,0;1,0;2,0;row;1,0;True;True;True;2,98099994659;True;1,27300000191
WPM1996w;experiment;2017-04-28-13-43-48;1,0;5,0;-100;0,0;3,0;2,0;1,0;row;0,0;False;False;False;2,11500000954;True;1,10400009155
WPM1996w;experiment;2017-04-28-13-43-48;1,0;6,0;-100;3,0;1,0;0,0;2,0;column;0,0;True;True;True;3,68300008774;True;1,10399985313
WPM1996w;experiment;2017-04-28-13-43-48;1,0;7,0;-100;0,0;2,0;3,0;1,0;row;0,0;True;True;True;3,62299990654;True;0,605000019073
WPM1996w;experiment;2017-04-28-13-43-48;1,0;8,0;-100;0,0;2,0;1,0;3,0;column;1,0;True;True;True;2,51699995995;True;0,56299996376
WPM1996w;experiment;2017-04-28-13-43-48;1,0;9,0;-100;2,0;0,0;1,0;3,0;column;0,0;False;False;True;2,21700000763;False;0,962000131607
WPM1996w;experiment;2017-04-28-13-43-48;1,0;10,0;-100;1,0;3,0;0,0;2,0;column;0,0;False;True;True;4,75;False;0,523000001907
WPM1996w;experiment;2017-04-28-13-43-48;1,0;11,0;-100;0,0;1,0;2,0;3,0;column;1,0;False;False;False;3,38100004196;True;1,37399983406
WPM1996w;experiment;2017-04-28-13-43-48;1,0;12,0;-100;2,0;0,0;3,0;1,0;row;0,0;False;True;False;3,08400011063;True;0,697999954224
WPM1996w;experiment;2017-04-28-13-43-48;1,0;13,0;-100;1,0;3,0;0,0;2,0;column;1,0;False;True;True;3,14899992943;False;1,5150001049
WPM1996w;experiment;2017-04-28-13-43-48;1,0;14,0;-100;2,0;0,0;1,0;3,0;row;1,0;True;False;False;3,31699991226;False;1,23300004005
WPM1996w;experiment;2017-04-28-13-43-48;1,0;15,0;-100;3,0;0,0;2,0;1,0;column;1,0;True;False;True;2,51699995995;True;0,732000112534
WPM1996w;experiment;2017-04-28-13-43-48;1,0;16,0;-100;3,0;2,0;0,0;1,0;column;0,0;True;True;False;3,41600012779;False;0,827999830246
WPM1996w;experiment;2017-04-28-13-43-48;1,0;17,0;-100;3,0;0,0;2,0;1,0;column;0,0;True;False;True;4,05100011826;True;1,3069999218
WPM1996w;experiment;2017-04-28-13-43-48;1,0;18,0;-100;1,0;2,0;0,0;3,0;column;0,0;False;True;True;3,91499996185;False;0,796000003815
WPM1996w;experiment;2017-04-28-13-43-48;1,0;19,0;-100;2,0;3,0;1,0;0,0;column;0,0;False;True;False;4,21599984169;True;1,07100009918
WPM1996w;experiment;2017-04-28-13-43-48;1,0;20,0;-100;1,0;3,0;2,0;0,0;row;1,0;False;False;False;5,68300008774;True;0,630000114441
WPM1996w;experiment;2017-04-28-13-43-48;1,0;21,0;-100;3,0;0,0;1,0;2,0;row;1,0;True;False;True;4,94799995422;True;0,799999952316
WPM1996w;experiment;2017-04-28-13-43-48;1,0;22,0;-100;0,0;3,0;2,0;1,0;column;1,0;False;False;False;6,9849998951;True;0,936000108719
WPM1996w;experiment;2017-04-28-13-43-48;1,0;23,0;-100;2,0;1,0;3,0;0,0;row;1,0;False;False;False;4,31500005722;True;0,532999992371
WPM1996w;experiment;2017-04-28-13-43-48;1,0;24,0;-100;0,0;1,0;2,0;3,0;row;0,0;False;False;False;2,38300013542;True;1,25300002098
WPM1996w;experiment;2017-04-28-13-43-48;1,0;25,0;-100;1,0;0,0;2,0;3,0;column;1,0;True;True;False;3,61699986458;False;0,598999977112
WPM1996w;experiment;2017-04-28-13-43-48;1,0;26,0;-100;2,0;1,0;3,0;0,0;column;1,0;True;False;False;2,51699995995;False;1,30799984932
WPM1996w;experiment;2017-04-28-13-43-48;1,0;27,0;-100;2,0;3,0;0,0;1,0;column;0,0;True;True;True;5,25;True;1,12999987602
WPM1996w;experiment;2017-04-28-13-43-48;1,0;28,0;-100;3,0;0,0;2,0;1,0;row;1,0;False;True;False;3,48200011253;True;1,36500000954
WPM1996w;experiment;2017-04-28-13-43-48;1,0;29,0;-100;1,0;2,0;3,0;0,0;row;0,0;False;False;False;2,6819999218;True;1,06700015068
WPM1996w;experiment;2017-04-28-13-43-48;1,0;30,0;-100;3,0;0,0;1,0;2,0;row;0,0;False;True;False;2,58100008965;True;0,904000043869
WPM1996w;experiment;2017-04-28-13-43-48;1,0;31,0;-100;3,0;1,0;0,0;2,0;column;1,0;True;False;False;1,98299980164;False;0,536999940872
WPM1996w;experiment;2017-04-28-13-43-48;1,0;32,0;-100;3,0;1,0;0,0;2,0;row;0,0;True;True;True;2,88999986649;True;1,25899982452
WPM1996w;experiment;2017-04-28-13-43-48;1,0;33,0;-100;3,0;1,0;2,0;0,0;column;0,0;False;True;False;4,45000004768;True;1,22299981117
WPM1996w;experiment;2017-04-28-13-43-48;1,0;34,0;-100;1,0;3,0;2,0;0,0;row;0,0;False;True;False;1,45000004768;True;1,09599995613
WPM1996w;experiment;2017-04-28-13-43-48;1,0;35,0;-100;3,0;0,0;2,0;1,0;column;1,0;False;False;False;3,23199987411;True;0,936000108719
WPM1996w;experiment;2017-04-28-13-43-48;1,0;36,0;-100;0,0;3,0;1,0;2,0;column;0,0;True;False;False;3,54699993134;False;1,46700000763
WPM1996w;experiment;2017-04-28-13-43-48;1,0;37,0;-100;3,0;0,0;1,0;2,0;column;1,0;False;True;False;2,88400006294;True;0,56200003624
WPM1996w;experiment;2017-04-28-13-43-48;1,0;38,0;-100;0,0;1,0;3,0;2,0;column;0,0;True;False;True;4,21700000763;True;1,40100002289
WPM1996w;experiment;2017-04-28-13-43-48;1,0;39,0;-100;3,0;0,0;1,0;2,0;row;0,0;True;False;True;3,44899988174;True;1,03699994087
WPM1996w;experiment;2017-04-28-13-43-48;1,0;40,0;-100;2,0;0,0;1,0;3,0;row;1,0;False;False;True;3,42000007629;False;0,932000160217
WPM1996w;experiment;2017-04-28-13-43-48;1,0;41,0;-100;2,0;1,0;0,0;3,0;row;1,0;True;True;False;9,9880001545;False;0,537999868393
WPM1996w;experiment;2017-04-28-13-43-48;1,0;42,0;-100;3,0;2,0;1,0;0,0;column;0,0;True;True;True;5,74499988556;True;0,703999996185
WPM1996w;experiment;2017-04-28-13-43-48;1,0;43,0;-100;1,0;3,0;2,0;0,0;column;0,0;False;False;False;5,78399991989;True;0,539999961853
WPM1996w;experiment;2017-04-28-13-43-48;1,0;44,0;-100;0,0;1,0;3,0;2,0;row;1,0;False;False;False;3,91400003433;True;1,03999996185
WPM1996w;experiment;2017-04-28-13-43-48;1,0;45,0;-100;0,0;2,0;3,0;1,0;column;1,0;False;True;False;4,15099978447;True;0,797999858856
WPM1996w;experiment;2017-04-28-13-43-48;1,0;46,0;-100;1,0;2,0;3,0;0,0;column;1,0;True;False;True;4,95000004768;True;1,27099990845
WPM1996w;experiment;2017-04-28-13-43-48;1,0;47,0;-100;2,0;1,0;0,0;3,0;row;1,0;False;True;False;4,11599993706;True;0,670000076294
WPM1996w;experiment;2017-04-28-13-43-48;1,0;48,0;-100;2,0;0,0;3,0;1,0;column;0,0;False;True;False;4,382999897;True;0,763000011444
WPM1996w;experiment;2017-04-28-13-43-48;2,0;1,0;100;2,0;1,0;3,0;0,0;row;1,0;True;False;False;2,39899992943;False;1,35299992561
WPM1996w;experiment;2017-04-28-13-43-48;2,0;2,0;100;3,0;0,0;2,0;1,0;column;1,0;True;True;True;6,0119998455;True;0,997000217438
WPM1996w;experiment;2017-04-28-13-43-48;2,0;3,0;100;3,0;2,0;0,0;1,0;row;1,0;True;False;True;2,79999995232;True;0,896999835968
WPM1996w;experiment;2017-04-28-13-43-48;2,0;4,0;100;2,0;3,0;0,0;1,0;row;0,0;True;True;True;3,2650001049;True;1,46899986267
WPM1996w;experiment;2017-04-28-13-43-48;2,0;5,0;100;1,0;2,0;0,0;3,0;row;0,0;True;False;True;2,66400003433;True;0,664999961853
WPM1996w;experiment;2017-04-28-13-43-48;2,0;6,0;100;1,0;0,0;2,0;3,0;row;0,0;False;True;False;1,56599998474;True;1,00800013542
WPM1996w;experiment;2017-04-28-13-43-48;2,0;7,0;100;1,0;2,0;0,0;3,0;row;1,0;True;False;True;2,23199987411;True;0,799999952316
WPM1996w;experiment;2017-04-28-13-43-48;2,0;8,0;100;3,0;0,0;1,0;2,0;row;0,0;False;True;False;2,99899983406;True;1,17000007629
WPM1996w;experiment;2017-04-28-13-43-48;2,0;9,0;100;0,0;2,0;1,0;3,0;column;0,0;True;False;True;2,5;True;1,4279999733
WPM1996w;experiment;2017-04-28-13-43-48;2,0;10,0;100;3,0;1,0;2,0;0,0;row;0,0;True;False;True;2,29999995232;True;0,762000083923
WPM1996w;experiment;2017-04-28-13-43-48;2,0;11,0;100;0,0;3,0;1,0;2,0;row;1,0;True;False;True;2,23300004005;True;1,08999991417
WPM1996w;experiment;2017-04-28-13-43-48;2,0;12,0;100;3,0;1,0;0,0;2,0;column;0,0;True;False;True;3,46700000763;True;1,23000001907
WPM1996w;experiment;2017-04-28-13-43-48;2,0;13,0;100;3,0;2,0;1,0;0,0;row;1,0;False;True;False;2,03299999237;True;1,40600013733
WPM1996w;experiment;2017-04-28-13-43-48;2,0;14,0;100;2,0;1,0;0,0;3,0;row;0,0;True;True;True;1,76600003242;True;0,826999902725
WPM1996w;experiment;2017-04-28-13-43-48;2,0;15,0;100;1,0;0,0;3,0;2,0;column;1,0;False;True;False;7,09999990463;True;0,632999897003
WPM1996w;experiment;2017-04-28-13-43-48;2,0;16,0;100;2,0;0,0;1,0;3,0;column;0,0;False;True;False;3,60000014305;True;1,07000017166
WPM1996w;experiment;2017-04-28-13-43-48;2,0;17,0;100;1,0;2,0;0,0;3,0;column;1,0;False;False;False;3,7990000248;True;0,700999975204
WPM1996w;experiment;2017-04-28-13-43-48;2,0;18,0;100;1,0;3,0;2,0;0,0;column;1,0;True;True;True;4,12299990654;True;0,638000011444
WPM1996w;experiment;2017-04-28-13-43-48;2,0;19,0;100;3,0;2,0;0,0;1,0;row;0,0;True;True;True;3,46700000763;True;1,29400014877
WPM1996w;experiment;2017-04-28-13-43-48;2,0;20,0;100;3,0;2,0;1,0;0,0;column;1,0;False;True;False;3,28099989891;True;0,737999916077
WPM1996w;experiment;2017-04-28-13-43-48;2,0;21,0;100;3,0;2,0;1,0;0,0;column;0,0;True;True;True;3,53399991989;True;0,538999795914
WPM1996w;experiment;2017-04-28-13-43-48;2,0;22,0;100;3,0;2,0;0,0;1,0;column;1,0;True;False;False;5,33400011063;False;0,763000011444
WPM1996w;experiment;2017-04-28-13-43-48;2,0;23,0;100;3,0;0,0;1,0;2,0;row;1,0;False;False;True;4,8710000515;False;0,865000009537
WPM1996w;experiment;2017-04-28-13-43-48;2,0;24,0;100;2,0;0,0;1,0;3,0;row;0,0;False;False;False;4,66700005531;True;1,16700005531
WPM1996w;experiment;2017-04-28-13-43-48;2,0;25,0;100;2,0;3,0;0,0;1,0;column;0,0;True;True;True;4,03200006485;True;1,5039999485
WPM1996w;experiment;2017-04-28-13-43-48;2,0;26,0;100;1,0;3,0;2,0;0,0;row;1,0;False;False;False;4,40000009537;True;1,19400000572
WPM1996w;experiment;2017-04-28-13-43-48;2,0;27,0;100;2,0;3,0;0,0;1,0;row;1,0;False;True;False;4,7009999752;True;0,662999868393
WPM1996w;experiment;2017-04-28-13-43-48;2,0;28,0;100;1,0;2,0;3,0;0,0;row;1,0;False;True;False;3,99900007248;True;1,03100013733
WPM1996w;experiment;2017-04-28-13-43-48;2,0;29,0;100;2,0;1,0;3,0;0,0;column;0,0;False;True;False;4,53299999237;True;0,526999950409
WPM1996w;experiment;2017-04-28-13-43-48;2,0;30,0;100;3,0;2,0;0,0;1,0;row;1,0;False;False;False;6,24799990654;True;0,898000001907
WPM1996w;experiment;2017-04-28-13-43-48;2,0;31,0;100;1,0;0,0;2,0;3,0;column;0,0;True;True;True;4,9319999218;True;0,936000108719
WPM1996w;experiment;2017-04-28-13-43-48;2,0;32,0;100;0,0;3,0;2,0;1,0;row;1,0;False;False;False;6,53499984741;True;0,90499997139
WPM1996w;experiment;2017-04-28-13-43-48;2,0;33,0;100;2,0;1,0;0,0;3,0;row;0,0;False;False;False;3,57899999619;True;0,697000026703
WPM1996w;experiment;2017-04-28-13-43-48;2,0;34,0;100;0,0;2,0;3,0;1,0;column;0,0;True;False;False;2,66599988937;False;0,766999959946
WPM1996w;experiment;2017-04-28-13-43-48;2,0;35,0;100;0,0;1,0;3,0;2,0;column;1,0;False;False;False;4,53400015831;True;1,39899992943
WPM1996w;experiment;2017-04-28-13-43-48;2,0;36,0;100;3,0;1,0;2,0;0,0;column;0,0;True;False;True;2,99800014496;True;1,32800006866
WPM1996w;experiment;2017-04-28-13-43-48;2,0;37,0;100;1,0;2,0;0,0;3,0;row;1,0;False;False;True;4,60100007057;False;0,970999956131
WPM1996w;experiment;2017-04-28-13-43-48;2,0;38,0;100;0,0;2,0;1,0;3,0;column;1,0;True;False;True;4,26499986649;True;0,796000003815
WPM1996w;experiment;2017-04-28-13-43-48;2,0;39,0;100;3,0;2,0;1,0;0,0;column;1,0;True;False;True;3,37299990654;True;1,30200004578
WPM1996w;experiment;2017-04-28-13-43-48;2,0;40,0;100;0,0;3,0;1,0;2,0;column;0,0;False;False;False;4,46700000763;True;0,971999883652
WPM1996w;experiment;2017-04-28-13-43-48;2,0;41,0;100;2,0;0,0;1,0;3,0;row;1,0;False;False;False;3,93400001526;True;0,835999965668
WPM1996w;experiment;2017-04-28-13-43-48;2,0;42,0;100;3,0;2,0;0,0;1,0;column;1,0;False;True;False;4,36600017548;True;0,59600019455
WPM1996w;experiment;2017-04-28-13-43-48;2,0;43,0;100;0,0;1,0;2,0;3,0;column;0,0;False;False;False;4,36699986458;True;1,3029999733
WPM1996w;experiment;2017-04-28-13-43-48;2,0;44,0;100;1,0;0,0;3,0;2,0;column;0,0;True;False;True;2,86699986458;True;0,965000152588
WPM1996w;experiment;2017-04-28-13-43-48;2,0;45,0;100;0,0;2,0;3,0;1,0;row;0,0;True;False;True;2,53399991989;True;1,16600012779
WPM1996w;experiment;2017-04-28-13-43-48;2,0;46,0;100;2,0;0,0;3,0;1,0;column;1,0;False;False;False;6,26600003242;True;1,49900007248
WPM1996w;experiment;2017-04-28-13-43-48;2,0;47,0;100;3,0;2,0;0,0;1,0;column;0,0;True;True;True;3,1369998455;True;0,641000032425
WPM1996w;experiment;2017-04-28-13-43-48;2,0;48,0;100;0,0;1,0;3,0;2,0;row;1,0;True;True;True;3,16600012779;True;0,5640001297
WPM1996w;experiment;2017-04-28-13-43-48;3,0;1,0;1000;2,0;3,0;0,0;1,0;row;1,0;True;False;True;3,69999980927;True;1,02500009537
WPM1996w;experiment;2017-04-28-13-43-48;3,0;2,0;1000;1,0;3,0;0,0;2,0;row;0,0;True;False;True;1,23300004005;True;0,924999952316
WPM1996w;experiment;2017-04-28-13-43-48;3,0;3,0;1000;1,0;0,0;3,0;2,0;column;1,0;False;False;False;3,03299999237;True;1,03299999237
WPM1996w;experiment;2017-04-28-13-43-48;3,0;4,0;1000;0,0;3,0;2,0;1,0;column;1,0;True;False;True;1,53399991989;True;0,998000144958
WPM1996w;experiment;2017-04-28-13-43-48;3,0;5,0;1000;3,0;2,0;0,0;1,0;column;0,0;False;False;False;2,29999995232;True;1,32800006866
WPM1996w;experiment;2017-04-28-13-43-48;3,0;6,0;1000;1,0;2,0;0,0;3,0;column;0,0;True;True;True;4,62199997902;True;0,865000009537
WPM1996w;experiment;2017-04-28-13-43-48;3,0;7,0;1000;3,0;0,0;1,0;2,0;column;0,0;True;True;True;2,93299984932;True;0,598999977112
WPM1996w;experiment;2017-04-28-13-43-48;3,0;8,0;1000;2,0;1,0;0,0;3,0;row;1,0;True;False;True;2,13399982452;True;0,596999883652
WPM1996w;experiment;2017-04-28-13-43-48;3,0;9,0;1000;1,0;2,0;0,0;3,0;column;1,0;False;True;False;2,46700000763;True;0,828999996185
WPM1996w;experiment;2017-04-28-13-43-48;3,0;10,0;1000;0,0;1,0;2,0;3,0;row;0,0;True;True;True;3,0150001049;True;1,32999992371
WPM1996w;experiment;2017-04-28-13-43-48;3,0;11,0;1000;2,0;3,0;1,0;0,0;column;0,0;True;True;True;3,09500002861;True;1,02500009537
WPM1996w;experiment;2017-04-28-13-43-48;3,0;12,0;1000;3,0;1,0;2,0;0,0;column;1,0;False;True;True;4,16699981689;False;1,49499988556
WPM1996w;experiment;2017-04-28-13-43-48;3,0;13,0;1000;3,0;2,0;1,0;0,0;column;0,0;True;False;True;2,06599998474;True;0,829999923706
WPM1996w;experiment;2017-04-28-13-43-48;3,0;14,0;1000;3,0;0,0;2,0;1,0;row;1,0;True;True;True;2,26399993896;True;0,674000024796
WPM1996w;experiment;2017-04-28-13-43-48;3,0;15,0;1000;2,0;3,0;1,0;0,0;column;1,0;False;True;False;2,63300013542;True;0,630000114441
WPM1996w;experiment;2017-04-28-13-43-48;3,0;16,0;1000;1,0;2,0;3,0;0,0;row;0,0;True;True;True;1,66699981689;True;1,09899997711
WPM1996w;experiment;2017-04-28-13-43-48;3,0;17,0;1000;2,0;1,0;3,0;0,0;row;0,0;True;False;True;1,09999990463;True;1,26200008392
WPM1996w;experiment;2017-04-28-13-43-48;3,0;18,0;1000;3,0;0,0;2,0;1,0;column;1,0;False;True;False;2,46499991417;True;0,634999990463
WPM1996w;experiment;2017-04-28-13-43-48;3,0;19,0;1000;1,0;2,0;0,0;3,0;row;1,0;True;True;True;4,0;True;0,730999946594
WPM1996w;experiment;2017-04-28-13-43-48;3,0;20,0;1000;2,0;0,0;3,0;1,0;column;0,0;True;False;True;3,53299999237;True;1,10300016403
WPM1996w;experiment;2017-04-28-13-43-48;3,0;21,0;1000;3,0;1,0;0,0;2,0;row;0,0;False;False;False;1,83299994469;True;0,871000051498
WPM1996w;experiment;2017-04-28-13-43-48;3,0;22,0;1000;1,0;0,0;2,0;3,0;row;1,0;False;False;True;3,03399991989;False;0,605000019073
WPM1996w;experiment;2017-04-28-13-43-48;3,0;23,0;1000;0,0;1,0;2,0;3,0;column;0,0;False;True;False;3,09899997711;True;0,532999992371
WPM1996w;experiment;2017-04-28-13-43-48;3,0;24,0;1000;3,0;0,0;2,0;1,0;row;0,0;True;True;True;1,66600012779;True;1,10599994659
WPM1996w;experiment;2017-04-28-13-43-48;3,0;25,0;1000;0,0;3,0;2,0;1,0;row;0,0;True;False;True;1,23399996758;True;1,29800009727
WPM1996w;experiment;2017-04-28-13-43-48;3,0;26,0;1000;1,0;2,0;0,0;3,0;row;0,0;False;False;False;1,23399996758;True;0,704999923706
WPM1996w;experiment;2017-04-28-13-43-48;3,0;27,0;1000;1,0;0,0;2,0;3,0;column;0,0;True;False;True;2,96300005913;True;1,132999897
WPM1996w;experiment;2017-04-28-13-43-48;3,0;28,0;1000;2,0;0,0;1,0;3,0;column;0,0;True;True;True;1,53299999237;True;0,594999790192
WPM1996w;experiment;2017-04-28-13-43-48;3,0;29,0;1000;0,0;1,0;2,0;3,0;row;1,0;False;False;False;3,33400011063;True;0,93700003624
WPM1996w;experiment;2017-04-28-13-43-48;3,0;30,0;1000;2,0;3,0;0,0;1,0;row;0,0;False;False;False;2,867000103;True;1,27099990845
WPM1996w;experiment;2017-04-28-13-43-48;3,0;31,0;1000;1,0;3,0;0,0;2,0;row;1,0;False;True;False;3,20499992371;True;1,40299987793
WPM1996w;experiment;2017-04-28-13-43-48;3,0;32,0;1000;3,0;1,0;2,0;0,0;row;0,0;True;True;True;1,53399991989;True;0,604000091553
WPM1996w;experiment;2017-04-28-13-43-48;3,0;33,0;1000;2,0;0,0;1,0;3,0;row;0,0;False;False;False;1,76600003242;True;1,28999996185
WPM1996w;experiment;2017-04-28-13-43-48;3,0;34,0;1000;2,0;3,0;0,0;1,0;row;1,0;False;True;False;2,46700000763;True;1,2380001545
WPM1996w;experiment;2017-04-28-13-43-48;3,0;35,0;1000;2,0;0,0;1,0;3,0;row;1,0;True;True;True;3,79799985886;True;1,10000014305
WPM1996w;experiment;2017-04-28-13-43-48;3,0;36,0;1000;1,0;3,0;2,0;0,0;row;0,0;False;False;False;1,20299983025;True;1,03199982643
WPM1996w;experiment;2017-04-28-13-43-48;3,0;37,0;1000;2,0;0,0;3,0;1,0;column;1,0;True;False;False;3,43200016022;False;0,964999914169
WPM1996w;experiment;2017-04-28-13-43-48;3,0;38,0;1000;0,0;1,0;3,0;2,0;row;1,0;True;False;False;1,867000103;False;1,16700005531
WPM1996w;experiment;2017-04-28-13-43-48;3,0;39,0;1000;1,0;0,0;2,0;3,0;column;1,0;False;True;False;2,0;True;0,632999897003
WPM1996w;experiment;2017-04-28-13-43-48;3,0;40,0;1000;1,0;0,0;3,0;2,0;column;0,0;True;True;True;2,53400015831;True;0,636999845505
WPM1996w;experiment;2017-04-28-13-43-48;3,0;41,0;1000;1,0;3,0;2,0;0,0;column;1,0;False;True;False;1,93299984932;True;1,26200008392
WPM1996w;experiment;2017-04-28-13-43-48;3,0;42,0;1000;0,0;3,0;1,0;2,0;row;1,0;False;False;False;2,59899997711;True;0,831000089645
WPM1996w;experiment;2017-04-28-13-43-48;3,0;43,0;1000;0,0;2,0;1,0;3,0;column;0,0;False;False;False;2,69900012016;True;0,895999908447
WPM1996w;experiment;2017-04-28-13-43-48;3,0;44,0;1000;1,0;2,0;3,0;0,0;row;0,0;False;True;False;1,0;True;0,539000034332
WPM1996w;experiment;2017-04-28-13-43-48;3,0;45,0;1000;2,0;3,0;1,0;0,0;row;1,0;False;True;False;2,83399987221;True;0,799000024796
WPM1996w;experiment;2017-04-28-13-43-48;3,0;46,0;1000;0,0;2,0;3,0;1,0;column;1,0;False;True;False;3,19899988174;True;0,866999864578
WPM1996w;experiment;2017-04-28-13-43-48;3,0;47,0;1000;0,0;2,0;1,0;3,0;column;1,0;True;False;True;1,73100018501;True;0,996999979019
WPM1996w;experiment;2017-04-28-13-43-48;3,0;48,0;1000;2,0;0,0;3,0;1,0;column;1,0;False;False;False;3,39900016785;True;1,22900009155
WPM1996w;experiment;2017-04-28-13-43-48;4,0;1,0;100;0,0;3,0;1,0;2,0;column;0,0;True;True;True;4,39899992943;True;0,858999967575
WPM1996w;experiment;2017-04-28-13-43-48;4,0;2,0;100;3,0;1,0;2,0;0,0;column;1,0;False;False;False;4,1320002079;True;0,830000162125
WPM1996w;experiment;2017-04-28-13-43-48;4,0;3,0;100;3,0;1,0;2,0;0,0;row;1,0;False;False;False;3,17300009727;True;1,23699998856
WPM1996w;experiment;2017-04-28-13-43-48;4,0;4,0;100;0,0;3,0;2,0;1,0;column;0,0;False;True;False;3,69900012016;True;0,671000003815
WPM1996w;experiment;2017-04-28-13-43-48;4,0;5,0;100;1,0;0,0;3,0;2,0;column;1,0;True;True;False;2,2349998951;False;1,132999897
WPM1996w;experiment;2017-04-28-13-43-48;4,0;6,0;100;1,0;0,0;3,0;2,0;row;1,0;False;True;False;2,33299994469;True;0,737999916077
WPM1996w;experiment;2017-04-28-13-43-48;4,0;7,0;100;0,0;3,0;1,0;2,0;row;1,0;False;False;False;2,63400006294;True;0,526000022888
WPM1996w;experiment;2017-04-28-13-43-48;4,0;8,0;100;0,0;3,0;2,0;1,0;row;0,0;True;True;False;2,46700000763;False;1,3630001545
WPM1996w;experiment;2017-04-28-13-43-48;4,0;9,0;100;2,0;3,0;1,0;0,0;row;1,0;True;False;True;4,60100007057;True;1,32299995422
WPM1996w;experiment;2017-04-28-13-43-48;4,0;10,0;100;1,0;0,0;3,0;2,0;column;0,0;False;True;False;2,96599984169;True;1,39900016785
WPM1996w;experiment;2017-04-28-13-43-48;4,0;11,0;100;1,0;0,0;3,0;2,0;row;1,0;True;True;True;3,46600008011;True;1,13000011444
WPM1996w;experiment;2017-04-28-13-43-48;4,0;12,0;100;3,0;0,0;2,0;1,0;row;1,0;False;False;False;8,26700019836;True;1,40799999237
WPM1996w;experiment;2017-04-28-13-43-48;4,0;13,0;100;3,0;1,0;0,0;2,0;row;1,0;True;True;True;4,70000004768;True;1,29699993134
WPM1996w;experiment;2017-04-28-13-43-48;4,0;14,0;100;0,0;3,0;2,0;1,0;row;0,0;False;False;False;3,21700000763;True;1,40400004387
WPM1996w;experiment;2017-04-28-13-43-48;4,0;15,0;100;3,0;0,0;1,0;2,0;column;0,0;True;True;True;3,26399993896;True;1,47199988365
WPM1996w;experiment;2017-04-28-13-43-48;4,0;16,0;100;0,0;2,0;1,0;3,0;row;1,0;True;True;True;4,56700015068;True;0,963999986649
WPM1996w;experiment;2017-04-28-13-43-48;4,0;17,0;100;1,0;3,0;2,0;0,0;row;1,0;True;False;True;3,89899992943;True;1,32699990273
WPM1996w;experiment;2017-04-28-13-43-48;4,0;18,0;100;0,0;1,0;3,0;2,0;row;0,0;False;True;False;4,69900012016;True;1,36299991608
WPM1996w;experiment;2017-04-28-13-43-48;4,0;19,0;100;2,0;0,0;3,0;1,0;column;1,0;True;True;True;3,76699995995;True;0,996000051498
WPM1996w;experiment;2017-04-28-13-43-48;4,0;20,0;100;0,0;2,0;1,0;3,0;column;1,0;False;True;False;4,0;True;1,25999999046
WPM1996w;experiment;2017-04-28-13-43-48;4,0;21,0;100;2,0;3,0;0,0;1,0;column;1,0;True;False;True;2,367000103;True;0,871000051498
WPM1996w;experiment;2017-04-28-13-43-48;4,0;22,0;100;3,0;2,0;1,0;0,0;row;0,0;False;False;False;1,73200011253;True;1,27100014687
WPM1996w;experiment;2017-04-28-13-43-48;4,0;23,0;100;2,0;0,0;1,0;3,0;row;1,0;True;True;True;4,0;True;0,662999868393
WPM1996w;experiment;2017-04-28-13-43-48;4,0;24,0;100;0,0;1,0;2,0;3,0;row;0,0;False;False;False;2,36699986458;True;1,36299991608
WPM1996w;experiment;2017-04-28-13-43-48;4,0;25,0;100;1,0;0,0;2,0;3,0;row;1,0;False;True;True;4,94000005722;False;1,43600010872
WPM1996w;experiment;2017-04-28-13-43-48;4,0;26,0;100;2,0;3,0;0,0;1,0;row;0,0;False;True;False;1,63300013542;True;1,26399993896
WPM1996w;experiment;2017-04-28-13-43-48;4,0;27,0;100;1,0;2,0;3,0;0,0;column;0,0;False;False;False;2,93200016022;True;1,24099993706
WPM1996w;experiment;2017-04-28-13-43-48;4,0;28,0;100;2,0;1,0;0,0;3,0;row;1,0;False;True;False;3,7009999752;True;0,664999961853
WPM1996w;experiment;2017-04-28-13-43-48;4,0;29,0;100;3,0;1,0;2,0;0,0;row;1,0;True;False;True;2,96500015259;True;1,49699997902
WPM1996w;experiment;2017-04-28-13-43-48;4,0;30,0;100;1,0;2,0;3,0;0,0;row;0,0;False;False;False;2,5;True;1,12800002098
WPM1996w;experiment;2017-04-28-13-43-48;4,0;31,0;100;1,0;2,0;0,0;3,0;column;1,0;True;False;True;2,26699995995;True;0,566999912262
WPM1996w;experiment;2017-04-28-13-43-48;4,0;32,0;100;2,0;0,0;3,0;1,0;row;1,0;True;True;True;2,5;True;0,533999919891
WPM1996w;experiment;2017-04-28-13-43-48;4,0;33,0;100;2,0;0,0;3,0;1,0;row;1,0;False;False;False;2,83299994469;True;1,00999999046
WPM1996w;experiment;2017-04-28-13-43-48;4,0;34,0;100;2,0;1,0;0,0;3,0;column;0,0;False;True;False;3,03400015831;True;1,00300002098
WPM1996w;experiment;2017-04-28-13-43-48;4,0;35,0;100;0,0;2,0;1,0;3,0;column;0,0;False;False;False;2,60299992561;True;1,29799985886
WPM1996w;experiment;2017-04-28-13-43-48;4,0;36,0;100;0,0;1,0;3,0;2,0;row;0,0;True;True;True;2,07399988174;True;1,40100002289
WPM1996w;experiment;2017-04-28-13-43-48;4,0;37,0;100;3,0;2,0;1,0;0,0;row;1,0;True;False;True;3,03299999237;True;0,736000061035
WPM1996w;experiment;2017-04-28-13-43-48;4,0;38,0;100;0,0;3,0;2,0;1,0;column;0,0;True;True;True;3,19799995422;True;1,26799988747
WPM1996w;experiment;2017-04-28-13-43-48;4,0;39,0;100;0,0;2,0;1,0;3,0;row;0,0;True;True;True;2,73099994659;True;0,734000205994
WPM1996w;experiment;2017-04-28-13-43-48;4,0;40,0;100;3,0;0,0;2,0;1,0;column;1,0;False;True;False;3,96700000763;True;0,594000101089
WPM1996w;experiment;2017-04-28-13-43-48;4,0;41,0;100;1,0;3,0;0,0;2,0;row;1,0;False;False;False;4,76399993896;True;1,1400001049
WPM1996w;experiment;2017-04-28-13-43-48;4,0;42,0;100;2,0;0,0;1,0;3,0;column;0,0;True;False;True;3,59899997711;True;1,49799990654
WPM1996w;experiment;2017-04-28-13-43-48;4,0;43,0;100;1,0;0,0;3,0;2,0;row;0,0;True;False;True;1,59899997711;True;1,37399983406
WPM1996w;experiment;2017-04-28-13-43-48;4,0;44,0;100;2,0;1,0;3,0;0,0;row;0,0;True;True;True;1,23199987411;True;0,766999959946
WPM1996w;experiment;2017-04-28-13-43-48;4,0;45,0;100;0,0;2,0;1,0;3,0;row;0,0;False;True;False;1,6369998455;True;0,865000009537
WPM1996w;experiment;2017-04-28-13-43-48;4,0;46,0;100;1,0;0,0;2,0;3,0;row;1,0;True;False;True;2,2009999752;True;1,46900010109
WPM1996w;experiment;2017-04-28-13-43-48;4,0;47,0;100;0,0;3,0;1,0;2,0;row;0,0;True;True;True;1,26600003242;True;1,09800004959
WPM1996w;experiment;2017-04-28-13-43-48;4,0;48,0;100;1,0;2,0;3,0;0,0;column;1,0;True;False;False;1,66700005531;False;1,03299999237
WPM1996w;experiment;2017-04-28-13-43-48;5,0;1,0;1000;1,0;0,0;2,0;3,0;row;0,0;False;True;False;1,13400006294;True;0,71799993515
WPM1996w;experiment;2017-04-28-13-43-48;5,0;2,0;1000;2,0;3,0;1,0;0,0;column;1,0;True;True;True;2,73000001907;True;1,29299998283
WPM1996w;experiment;2017-04-28-13-43-48;5,0;3,0;1000;1,0;0,0;2,0;3,0;column;0,0;False;False;False;2,56599998474;True;1,36199998856
WPM1996w;experiment;2017-04-28-13-43-48;5,0;4,0;1000;3,0;2,0;1,0;0,0;column;1,0;False;False;False;3,53299999237;True;0,530999898911
WPM1996w;experiment;2017-04-28-13-43-48;5,0;5,0;1000;1,0;3,0;2,0;0,0;column;0,0;False;False;False;1,86500000954;True;0,625999927521
WPM1996w;experiment;2017-04-28-13-43-48;5,0;6,0;1000;3,0;2,0;0,0;1,0;row;0,0;False;False;False;1,59800004959;True;0,672999858856
WPM1996w;experiment;2017-04-28-13-43-48;5,0;7,0;1000;2,0;1,0;0,0;3,0;row;0,0;False;True;False;1,10000014305;True;1,15799999237
WPM1996w;experiment;2017-04-28-13-43-48;5,0;8,0;1000;0,0;3,0;2,0;1,0;column;1,0;False;True;False;2,867000103;True;0,565999984741
WPM1996w;experiment;2017-04-28-13-43-48;5,0;9,0;1000;1,0;2,0;0,0;3,0;row;0,0;True;True;True;1,132999897;True;0,836999893188
WPM1996w;experiment;2017-04-28-13-43-48;5,0;10,0;1000;2,0;3,0;0,0;1,0;column;0,0;False;True;False;2,36500000954;True;0,856000185013
WPM1996w;experiment;2017-04-28-13-43-48;5,0;11,0;1000;2,0;0,0;3,0;1,0;row;0,0;True;True;True;0,967000007629;True;0,863999843597
WPM1996w;experiment;2017-04-28-13-43-48;5,0;12,0;1000;3,0;1,0;2,0;0,0;row;1,0;False;False;True;3,40599989891;False;1,26699995995
WPM1996w;experiment;2017-04-28-13-43-48;5,0;13,0;1000;1,0;0,0;3,0;2,0;column;1,0;True;True;True;1,90000009537;True;1,46799993515
WPM1996w;experiment;2017-04-28-13-43-48;5,0;14,0;1000;3,0;0,0;2,0;1,0;row;1,0;False;False;False;2,40100002289;True;0,798000097275
WPM1996w;experiment;2017-04-28-13-43-48;5,0;15,0;1000;3,0;2,0;0,0;1,0;row;0,0;True;True;True;1,29999995232;True;1,43700003624
WPM1996w;experiment;2017-04-28-13-43-48;5,0;16,0;1000;2,0;3,0;0,0;1,0;column;1,0;False;True;False;3,53200006485;True;0,598999977112
WPM1996w;experiment;2017-04-28-13-43-48;5,0;17,0;1000;2,0;1,0;3,0;0,0;column;1,0;True;True;True;2,63399982452;True;0,796000003815
WPM1996w;experiment;2017-04-28-13-43-48;5,0;18,0;1000;1,0;3,0;0,0;2,0;column;0,0;True;True;True;5,06599998474;True;0,770999908447
WPM1996w;experiment;2017-04-28-13-43-48;5,0;19,0;1000;1,0;0,0;2,0;3,0;row;1,0;True;True;True;3,0;True;0,5640001297
WPM1996w;experiment;2017-04-28-13-43-48;5,0;20,0;1000;1,0;3,0;2,0;0,0;row;1,0;False;True;False;4,33299994469;True;0,664000034332
WPM1996w;experiment;2017-04-28-13-43-48;5,0;21,0;1000;1,0;2,0;0,0;3,0;row;1,0;False;True;True;3,33299994469;False;1,13099980354
WPM1996w;experiment;2017-04-28-13-43-48;5,0;22,0;1000;1,0;2,0;3,0;0,0;column;0,0;False;False;False;2,93299984932;True;0,835000038147
WPM1996w;experiment;2017-04-28-13-43-48;5,0;23,0;1000;1,0;0,0;3,0;2,0;row;0,0;False;True;False;1,46700000763;True;0,965000152588
WPM1996w;experiment;2017-04-28-13-43-48;5,0;24,0;1000;0,0;3,0;2,0;1,0;column;0,0;False;True;False;2,1970000267;True;0,638000011444
WPM1996w;experiment;2017-04-28-13-43-48;5,0;25,0;1000;2,0;1,0;3,0;0,0;row;1,0;False;False;False;1,33299994469;True;0,867000102997
WPM1996w;experiment;2017-04-28-13-43-48;5,0;26,0;1000;3,0;2,0;0,0;1,0;row;1,0;True;True;False;3,03299999237;False;1,22800016403
WPM1996w;experiment;2017-04-28-13-43-48;5,0;27,0;1000;2,0;1,0;3,0;0,0;row;0,0;False;True;False;1,06699991226;True;0,868999958038
WPM1996w;experiment;2017-04-28-13-43-48;5,0;28,0;1000;0,0;1,0;2,0;3,0;column;1,0;False;True;False;2,16599988937;True;1,22600007057
WPM1996w;experiment;2017-04-28-13-43-48;5,0;29,0;1000;1,0;3,0;2,0;0,0;row;0,0;True;True;True;1,26699995995;True;1,11400008202
WPM1996w;experiment;2017-04-28-13-43-48;5,0;30,0;1000;0,0;2,0;3,0;1,0;row;0,0;True;False;True;0,867000102997;True;0,996999979019
WPM1996w;experiment;2017-04-28-13-43-48;5,0;31,0;1000;1,0;3,0;0,0;2,0;row;1,0;True;True;True;2,63199996948;True;1,52500009537
WPM1996w;experiment;2017-04-28-13-43-48;5,0;32,0;1000;0,0;2,0;3,0;1,0;column;0,0;True;False;True;2,83800005913;True;0,975000143051
WPM1996w;experiment;2017-04-28-13-43-48;5,0;33,0;1000;0,0;2,0;3,0;1,0;row;1,0;False;True;False;1,90000009537;True;1,26600003242
WPM1996w;experiment;2017-04-28-13-43-48;5,0;34,0;1000;0,0;1,0;3,0;2,0;column;0,0;True;False;True;1,76499986649;True;0,858000040054
WPM1996w;experiment;2017-04-28-13-43-48;5,0;35,0;1000;3,0;2,0;0,0;1,0;column;0,0;True;False;False;1,83200001717;False;0,700999975204
WPM1996w;experiment;2017-04-28-13-43-48;5,0;36,0;1000;0,0;3,0;1,0;2,0;column;1,0;True;False;True;2,23300004005;True;1,33500003815
WPM1996w;experiment;2017-04-28-13-43-48;5,0;37,0;1000;1,0;2,0;0,0;3,0;column;0,0;False;True;False;2,367000103;True;1,29699993134
WPM1996w;experiment;2017-04-28-13-43-48;5,0;38,0;1000;2,0;0,0;3,0;1,0;row;1,0;True;True;True;2,83800005913;True;0,930999994278
WPM1996w;experiment;2017-04-28-13-43-48;5,0;39,0;1000;1,0;2,0;3,0;0,0;column;1,0;False;False;False;4,23099994659;True;0,534999847412
WPM1996w;experiment;2017-04-28-13-43-48;5,0;40,0;1000;0,0;3,0;1,0;2,0;column;0,0;True;True;True;4,70000004768;True;1,02999997139
WPM1996w;experiment;2017-04-28-13-43-48;5,0;41,0;1000;0,0;3,0;1,0;2,0;row;0,0;True;True;False;1,5;False;1,32800006866
WPM1996w;experiment;2017-04-28-13-43-48;5,0;42,0;1000;1,0;3,0;0,0;2,0;row;0,0;False;False;False;1,2009999752;True;0,56299996376
WPM1996w;experiment;2017-04-28-13-43-48;5,0;43,0;1000;0,0;3,0;2,0;1,0;row;1,0;False;True;False;2,30000019073;True;0,990000009537
WPM1996w;experiment;2017-04-28-13-43-48;5,0;44,0;1000;0,0;1,0;2,0;3,0;column;1,0;True;True;True;2,86699986458;True;1,40199995041
WPM1996w;experiment;2017-04-28-13-43-48;5,0;45,0;1000;2,0;1,0;0,0;3,0;column;1,0;False;False;False;3,46700000763;True;1,40700006485
WPM1996w;experiment;2017-04-28-13-43-48;5,0;46,0;1000;2,0;1,0;3,0;0,0;column;0,0;False;False;False;1,66700005531;True;1,16400003433
WPM1996w;experiment;2017-04-28-13-43-48;5,0;47,0;1000;2,0;0,0;3,0;1,0;row;0,0;False;True;False;1,20000004768;True;0,664999961853
WPM1996w;experiment;2017-04-28-13-43-48;5,0;48,0;1000;3,0;1,0;2,0;0,0;column;0,0;False;True;False;2,5;True;0,792000055313
WPM1996w;experiment;2017-04-28-13-43-48;6,0;1,0;-100;2,0;1,0;0,0;3,0;row;0,0;True;False;True;1,58299994469;True;1,46700000763
WPM1996w;experiment;2017-04-28-13-43-48;6,0;2,0;-100;0,0;1,0;2,0;3,0;column;1,0;True;False;True;3,81399989128;True;0,530999898911
WPM1996w;experiment;2017-04-28-13-43-48;6,0;3,0;-100;1,0;3,0;0,0;2,0;row;0,0;True;False;True;2,45300006866;True;1,00999999046
WPM1996w;experiment;2017-04-28-13-43-48;6,0;4,0;-100;0,0;2,0;3,0;1,0;column;0,0;True;False;True;2,34899997711;True;0,904000043869
WPM1996w;experiment;2017-04-28-13-43-48;6,0;5,0;-100;1,0;3,0;0,0;2,0;row;1,0;False;True;True;4,21500015259;False;1,50199985504
WPM1996w;experiment;2017-04-28-13-43-48;6,0;6,0;-100;1,0;2,0;0,0;3,0;row;1,0;False;False;False;5,44599986076;True;0,661000013351
WPM1996w;experiment;2017-04-28-13-43-48;6,0;7,0;-100;2,0;1,0;0,0;3,0;column;0,0;False;True;False;3,78099989891;True;0,825999975204
WPM1996w;experiment;2017-04-28-13-43-48;6,0;8,0;-100;2,0;0,0;3,0;1,0;column;0,0;True;False;True;3,08299994469;True;0,934000015259
WPM1996w;experiment;2017-04-28-13-43-48;6,0;9,0;-100;3,0;1,0;2,0;0,0;row;1,0;False;True;False;8,21799993515;True;1,40100002289
WPM1996w;experiment;2017-04-28-13-43-48;6,0;10,0;-100;2,0;1,0;0,0;3,0;column;1,0;True;True;True;4,01399993896;True;0,631000041962
WPM1996w;experiment;2017-04-28-13-43-48;6,0;11,0;-100;3,0;1,0;0,0;2,0;column;1,0;False;True;False;7,38000011444;True;1,16600012779
WPM1996w;experiment;2017-04-28-13-43-48;6,0;12,0;-100;3,0;0,0;1,0;2,0;row;1,0;False;False;False;3,28200006485;True;1,5039999485
WPM1996w;experiment;2017-04-28-13-43-48;6,0;13,0;-100;3,0;1,0;2,0;0,0;column;0,0;True;True;True;1,85000014305;True;0,799999952316
WPM1996w;experiment;2017-04-28-13-43-48;6,0;14,0;-100;1,0;3,0;0,0;2,0;column;0,0;True;False;True;2,18300008774;True;0,598999977112
WPM1996w;experiment;2017-04-28-13-43-48;6,0;15,0;-100;0,0;3,0;1,0;2,0;column;0,0;False;False;False;2,0490000248;True;0,738000154495
WPM1996w;experiment;2017-04-28-13-43-48;6,0;16,0;-100;1,0;0,0;3,0;2,0;row;0,0;False;True;False;2,61500000954;True;0,726000070572
WPM1996w;experiment;2017-04-28-13-43-48;6,0;17,0;-100;3,0;2,0;1,0;0,0;column;1,0;False;False;False;2,25;True;1,09899997711
WPM1996w;experiment;2017-04-28-13-43-48;6,0;18,0;-100;3,0;1,0;2,0;0,0;column;1,0;False;True;False;2,72000002861;True;1,40100002289
WPM1996w;experiment;2017-04-28-13-43-48;6,0;19,0;-100;0,0;1,0;3,0;2,0;row;0,0;False;True;False;3,54999995232;True;0,671000003815
WPM1996w;experiment;2017-04-28-13-43-48;6,0;20,0;-100;1,0;0,0;3,0;2,0;column;1,0;True;True;False;2,28299999237;False;0,736999988556
WPM1996w;experiment;2017-04-28-13-43-48;6,0;21,0;-100;0,0;2,0;1,0;3,0;row;1,0;False;True;False;4,08199977875;True;1,37299990654
WPM1996w;experiment;2017-04-28-13-43-48;6,0;22,0;-100;3,0;1,0;2,0;0,0;row;0,0;False;False;False;2,78399991989;True;0,868999958038
WPM1996w;experiment;2017-04-28-13-43-48;6,0;23,0;-100;1,0;3,0;2,0;0,0;column;1,0;True;False;True;3,6819999218;True;0,898000001907
WPM1996w;experiment;2017-04-28-13-43-48;6,0;24,0;-100;0,0;1,0;3,0;2,0;row;1,0;True;True;True;4,01599979401;True;1,12900018692
WPM1996w;experiment;2017-04-28-13-43-48;6,0;25,0;-100;0,0;3,0;2,0;1,0;row;1,0;False;True;True;3,51700019836;False;0,802000045776
WPM1996w;experiment;2017-04-28-13-43-48;6,0;26,0;-100;3,0;1,0;2,0;0,0;row;0,0;True;False;False;2,51800012589;False;0,960999965668
WPM1996w;experiment;2017-04-28-13-43-48;6,0;27,0;-100;1,0;3,0;2,0;0,0;column;0,0;True;False;True;2,08299994469;True;1,3630001545
WPM1996w;experiment;2017-04-28-13-43-48;6,0;28,0;-100;1,0;0,0;3,0;2,0;row;1,0;False;True;False;4,61599993706;True;1,29600000381
WPM1996w;experiment;2017-04-28-13-43-48;6,0;29,0;-100;3,0;2,0;0,0;1,0;column;0,0;False;True;False;1,68499994278;True;0,702000141144
WPM1996w;experiment;2017-04-28-13-43-48;6,0;30,0;-100;2,0;0,0;1,0;3,0;row;0,0;True;True;True;3,0490000248;True;0,957000017166
WPM1996w;experiment;2017-04-28-13-43-48;6,0;31,0;-100;3,0;2,0;1,0;0,0;row;1,0;False;False;False;2,21700000763;True;0,560000181198
WPM1996w;experiment;2017-04-28-13-43-48;6,0;32,0;-100;0,0;3,0;1,0;2,0;column;1,0;True;False;True;8,05000019073;True;1,49300003052
WPM1996w;experiment;2017-04-28-13-43-48;6,0;33,0;-100;2,0;3,0;0,0;1,0;row;0,0;False;True;False;2,94800019264;True;1,46599984169
WPM1996w;experiment;2017-04-28-13-43-48;6,0;34,0;-100;3,0;2,0;0,0;1,0;row;0,0;False;True;False;2,51699995995;True;1,23000001907
WPM1996w;experiment;2017-04-28-13-43-48;6,0;35,0;-100;2,0;3,0;0,0;1,0;row;1,0;True;True;False;4,61699986458;False;0,897000074387
WPM1996w;experiment;2017-04-28-13-43-48;6,0;36,0;-100;2,0;3,0;1,0;0,0;row;0,0;True;False;True;3,98099994659;True;0,702000141144
WPM1996w;experiment;2017-04-28-13-43-48;6,0;37,0;-100;1,0;2,0;0,0;3,0;row;0,0;False;True;False;3,01600003242;True;0,632999897003
WPM1996w;experiment;2017-04-28-13-43-48;6,0;38,0;-100;2,0;0,0;3,0;1,0;column;1,0;True;False;True;3,35500001907;True;0,933000087738
WPM1996w;experiment;2017-04-28-13-43-48;6,0;39,0;-100;3,0;2,0;0,0;1,0;row;1,0;False;False;False;3,51699995995;True;1,29099988937
WPM1996w;experiment;2017-04-28-13-43-48;6,0;40,0;-100;3,0;1,0;2,0;0,0;column;1,0;True;False;False;6,14599990845;False;0,963999986649
WPM1996w;experiment;2017-04-28-13-43-48;6,0;41,0;-100;2,0;1,0;3,0;0,0;row;0,0;False;False;False;2,41799998283;True;1,13899993896
WPM1996w;experiment;2017-04-28-13-43-48;6,0;42,0;-100;0,0;2,0;1,0;3,0;column;1,0;False;True;False;2,88399982452;True;1,15599989891
WPM1996w;experiment;2017-04-28-13-43-48;6,0;43,0;-100;1,0;0,0;2,0;3,0;column;1,0;False;False;True;3,61800003052;False;0,564999818802
WPM1996w;experiment;2017-04-28-13-43-48;6,0;44,0;-100;3,0;0,0;2,0;1,0;row;1,0;True;False;True;2,51699995995;True;0,90499997139
WPM1996w;experiment;2017-04-28-13-43-48;6,0;45,0;-100;1,0;3,0;2,0;0,0;row;1,0;True;False;False;4,28100013733;False;0,830999851227
WPM1996w;experiment;2017-04-28-13-43-48;6,0;46,0;-100;1,0;2,0;0,0;3,0;row;0,0;True;False;True;1,44999980927;True;1,03099989891
WPM1996w;experiment;2017-04-28-13-43-48;6,0;47,0;-100;1,0;2,0;0,0;3,0;row;1,0;True;True;False;4,34899997711;False;0,858999967575
WPM1996w;experiment;2017-04-28-13-43-48;6,0;48,0;-100;2,0;3,0;1,0;0,0;row;0,0;False;True;False;2,18299984932;True;1,36400008202
WPM1996w;experiment;2017-04-28-13-43-48;7,0;1,0;-100;0,0;3,0;1,0;2,0;row;0,0;False;True;False;1,64899992943;True;1,43200016022
WPM1996w;experiment;2017-04-28-13-43-48;7,0;2,0;-100;1,0;2,0;0,0;3,0;column;1,0;False;False;False;3,88399982452;True;1,22499990463
WPM1996w;experiment;2017-04-28-13-43-48;7,0;3,0;-100;2,0;0,0;3,0;1,0;row;1,0;True;False;True;2,11699986458;True;1,19800019264
WPM1996w;experiment;2017-04-28-13-43-48;7,0;4,0;-100;0,0;2,0;3,0;1,0;column;1,0;True;False;False;3,31699991226;False;1,15799999237
WPM1996w;experiment;2017-04-28-13-43-48;7,0;5,0;-100;2,0;1,0;3,0;0,0;column;0,0;True;True;True;2,68300008774;True;0,596999883652
WPM1996w;experiment;2017-04-28-13-43-48;7,0;6,0;-100;3,0;2,0;0,0;1,0;column;1,0;False;False;False;3,68400001526;True;0,97400021553
WPM1996w;experiment;2017-04-28-13-43-48;7,0;7,0;-100;1,0;0,0;2,0;3,0;column;0,0;True;False;True;1,71600008011;True;1,43799996376
WPM1996w;experiment;2017-04-28-13-43-48;7,0;8,0;-100;3,0;2,0;1,0;0,0;column;1,0;True;True;True;3,08399987221;True;1,29999995232
WPM1996w;experiment;2017-04-28-13-43-48;7,0;9,0;-100;3,0;2,0;0,0;1,0;row;0,0;True;False;True;1,74799990654;True;1,13399982452
WPM1996w;experiment;2017-04-28-13-43-48;7,0;10,0;-100;2,0;0,0;3,0;1,0;row;0,0;True;False;True;1,28400015831;True;1,53200006485
WPM1996w;experiment;2017-04-28-13-43-48;7,0;11,0;-100;3,0;0,0;2,0;1,0;row;0,0;True;True;True;1,78400015831;True;0,665999889374
WPM1996w;experiment;2017-04-28-13-43-48;7,0;12,0;-100;3,0;1,0;0,0;2,0;row;1,0;False;False;False;2,64999985695;True;0,53200006485
WPM1996w;experiment;2017-04-28-13-43-48;7,0;13,0;-100;0,0;2,0;3,0;1,0;column;0,0;False;True;False;4,61600017548;True;0,633000135422
WPM1996w;experiment;2017-04-28-13-43-48;7,0;14,0;-100;1,0;0,0;2,0;3,0;row;1,0;False;True;False;4,51600003242;True;0,862999916077
WPM1996w;experiment;2017-04-28-13-43-48;7,0;15,0;-100;1,0;0,0;2,0;3,0;row;0,0;True;True;True;1,61800003052;True;1,46199989319
WPM1996w;experiment;2017-04-28-13-43-48;7,0;16,0;-100;1,0;3,0;2,0;0,0;column;1,0;False;True;False;2,81500005722;True;0,700000047684
WPM1996w;experiment;2017-04-28-13-43-48;7,0;17,0;-100;1,0;0,0;2,0;3,0;row;1,0;True;True;True;2,04899978638;True;1,05900001526
WPM1996w;experiment;2017-04-28-13-43-48;7,0;18,0;-100;3,0;2,0;1,0;0,0;row;0,0;False;False;False;2,41600012779;True;1,26400017738
WPM1996w;experiment;2017-04-28-13-43-48;7,0;19,0;-100;3,0;2,0;0,0;1,0;row;1,0;True;True;True;1,98299980164;True;0,97000002861
WPM1996w;experiment;2017-04-28-13-43-48;7,0;20,0;-100;0,0;2,0;1,0;3,0;column;0,0;True;False;True;3,85000014305;True;1,38399982452
WPM1996w;experiment;2017-04-28-13-43-48;7,0;21,0;-100;1,0;2,0;3,0;0,0;column;1,0;False;False;False;2,74800014496;True;1,20699977875
WPM1996w;experiment;2017-04-28-13-43-48;7,0;22,0;-100;2,0;0,0;1,0;3,0;column;0,0;True;False;True;3,74900007248;True;1,4960000515
WPM1996w;experiment;2017-04-28-13-43-48;7,0;23,0;-100;2,0;3,0;1,0;0,0;row;1,0;False;True;True;2,01699995995;False;1,15899991989
WPM1996w;experiment;2017-04-28-13-43-48;7,0;24,0;-100;2,0;3,0;0,0;1,0;column;1,0;True;True;True;2,58800005913;True;1,20499992371
WPM1996w;experiment;2017-04-28-13-43-48;7,0;25,0;-100;0,0;1,0;2,0;3,0;row;1,0;True;True;True;4,08200001717;True;1,19099998474
WPM1996w;experiment;2017-04-28-13-43-48;7,0;26,0;-100;1,0;2,0;3,0;0,0;column;0,0;False;True;True;2,74799990654;False;1,13400006294
WPM1996w;experiment;2017-04-28-13-43-48;7,0;27,0;-100;3,0;1,0;0,0;2,0;column;0,0;False;False;False;2,68400001526;True;1,0
WPM1996w;experiment;2017-04-28-13-43-48;7,0;28,0;-100;2,0;0,0;1,0;3,0;row;0,0;False;False;False;2,08400011063;True;0,892000198364
WPM1996w;experiment;2017-04-28-13-43-48;7,0;29,0;-100;2,0;0,0;3,0;1,0;column;1,0;False;True;True;3,71600008011;False;0,733000040054
WPM1996w;experiment;2017-04-28-13-43-48;7,0;30,0;-100;1,0;2,0;3,0;0,0;column;0,0;True;True;True;4,45000004768;True;0,62299990654
WPM1996w;experiment;2017-04-28-13-43-48;7,0;31,0;-100;1,0;0,0;3,0;2,0;column;0,0;True;False;True;2,1819999218;True;1,00300002098
WPM1996w;experiment;2017-04-28-13-43-48;7,0;32,0;-100;2,0;0,0;1,0;3,0;column;1,0;True;False;False;3,08299994469;False;1,23600006104
WPM1996w;experiment;2017-04-28-13-43-48;7,0;33,0;-100;1,0;2,0;3,0;0,0;row;1,0;False;False;False;2,38399982452;True;0,796999931335
WPM1996w;experiment;2017-04-28-13-43-48;7,0;34,0;-100;0,0;2,0;3,0;1,0;row;0,0;False;False;False;1,74899983406;True;0,740000009537
WPM1996w;experiment;2017-04-28-13-43-48;7,0;35,0;-100;2,0;1,0;3,0;0,0;column;0,0;False;False;False;2,28299999237;True;0,898000001907
WPM1996w;experiment;2017-04-28-13-43-48;7,0;36,0;-100;3,0;2,0;0,0;1,0;column;1,0;True;False;True;2,35000014305;True;1,13100004196
WPM1996w;experiment;2017-04-28-13-43-48;7,0;37,0;-100;1,0;2,0;3,0;0,0;row;0,0;True;False;True;1,81699991226;True;1,2570002079
WPM1996w;experiment;2017-04-28-13-43-48;7,0;38,0;-100;1,0;0,0;3,0;2,0;row;1,0;True;False;True;3,74800014496;True;0,733000040054
WPM1996w;experiment;2017-04-28-13-43-48;7,0;39,0;-100;2,0;3,0;0,0;1,0;column;0,0;False;True;False;2,75200009346;True;0,703000068665
WPM1996w;experiment;2017-04-28-13-43-48;7,0;40,0;-100;1,0;0,0;2,0;3,0;column;0,0;False;True;False;4,15000009537;True;1,26699995995
WPM1996w;experiment;2017-04-28-13-43-48;7,0;41,0;-100;2,0;3,0;0,0;1,0;column;1,0;False;True;False;2,68099999428;True;0,597999811172
WPM1996w;experiment;2017-04-28-13-43-48;7,0;42,0;-100;3,0;1,0;2,0;0,0;row;1,0;True;False;False;3,08200001717;False;0,634999990463
WPM1996w;experiment;2017-04-28-13-43-48;7,0;43,0;-100;0,0;1,0;3,0;2,0;column;1,0;True;False;True;2,28299999237;True;1,16899991035
WPM1996w;experiment;2017-04-28-13-43-48;7,0;44,0;-100;3,0;0,0;1,0;2,0;column;1,0;True;True;True;3,78299999237;True;0,5640001297
WPM1996w;experiment;2017-04-28-13-43-48;7,0;45,0;-100;3,0;2,0;1,0;0,0;row;1,0;True;False;True;2,41499996185;True;0,796999931335
WPM1996w;experiment;2017-04-28-13-43-48;7,0;46,0;-100;1,0;0,0;3,0;2,0;column;1,0;False;False;False;3,91699981689;True;0,807999849319
WPM1996w;experiment;2017-04-28-13-43-48;7,0;47,0;-100;1,0;2,0;3,0;0,0;row;1,0;True;False;True;4,51600003242;True;1,46000003815
WPM1996w;experiment;2017-04-28-13-43-48;7,0;48,0;-100;0,0;2,0;1,0;3,0;column;0,0;False;True;False;2,99500012398;True;0,570999860764
WPM1996w;experiment;2017-04-28-13-43-48;8,0;1,0;1000;1,0;0,0;3,0;2,0;row;0,0;True;True;True;2,36800003052;True;0,588999986649
WPM1996w;experiment;2017-04-28-13-43-48;8,0;2,0;1000;3,0;0,0;1,0;2,0;column;1,0;True;True;True;2,867000103;True;0,97000002861
WPM1996w;experiment;2017-04-28-13-43-48;8,0;3,0;1000;3,0;1,0;0,0;2,0;column;1,0;False;False;False;1,29999995232;True;0,563999891281
WPM1996w;experiment;2017-04-28-13-43-48;8,0;4,0;1000;0,0;3,0;2,0;1,0;row;1,0;True;False;True;2,96800017357;True;1,03799986839
WPM1996w;experiment;2017-04-28-13-43-48;8,0;5,0;1000;1,0;0,0;2,0;3,0;row;0,0;True;True;True;0,866999864578;True;1,00499987602
WPM1996w;experiment;2017-04-28-13-43-48;8,0;6,0;1000;3,0;1,0;0,0;2,0;row;1,0;True;False;True;1,56700015068;True;0,754999876022
WPM1996w;experiment;2017-04-28-13-43-48;8,0;7,0;1000;1,0;2,0;3,0;0,0;row;1,0;True;False;True;1,23200011253;True;1,19900012016
WPM1996w;experiment;2017-04-28-13-43-48;8,0;8,0;1000;1,0;3,0;0,0;2,0;column;1,0;True;False;True;3,44500017166;True;0,868999958038
WPM1996w;experiment;2017-04-28-13-43-48;8,0;9,0;1000;2,0;3,0;0,0;1,0;row;0,0;True;False;True;0,933000087738;True;0,998000144958
WPM1996w;experiment;2017-04-28-13-43-48;8,0;10,0;1000;1,0;3,0;2,0;0,0;column;1,0;True;False;True;2,09999990463;True;1,09700012207
WPM1996w;experiment;2017-04-28-13-43-48;8,0;11,0;1000;3,0;0,0;1,0;2,0;column;0,0;False;False;False;1,59899997711;True;0,538000106812
WPM1996w;experiment;2017-04-28-13-43-48;8,0;12,0;1000;1,0;0,0;3,0;2,0;row;1,0;False;True;False;1,97500014305;True;0,536999940872
WPM1996w;experiment;2017-04-28-13-43-48;8,0;13,0;1000;3,0;0,0;1,0;2,0;row;0,0;True;True;True;0,766000032425;True;1,39700007439
WPM1996w;experiment;2017-04-28-13-43-48;8,0;14,0;1000;3,0;0,0;2,0;1,0;row;0,0;False;False;False;1,38099980354;True;1,09399986267
WPM1996w;experiment;2017-04-28-13-43-48;8,0;15,0;1000;2,0;0,0;1,0;3,0;row;0,0;True;True;True;0,733999967575;True;1,02900004387
WPM1996w;experiment;2017-04-28-13-43-48;8,0;16,0;1000;3,0;0,0;1,0;2,0;column;1,0;False;False;False;1,90100002289;True;0,589999914169
WPM1996w;experiment;2017-04-28-13-43-48;8,0;17,0;1000;2,0;0,0;3,0;1,0;row;1,0;False;False;True;2,16800022125;False;1,32899999619
WPM1996w;experiment;2017-04-28-13-43-48;8,0;18,0;1000;0,0;1,0;3,0;2,0;row;1,0;False;True;False;1,19899988174;True;1,49800014496
WPM1996w;experiment;2017-04-28-13-43-48;8,0;19,0;1000;0,0;3,0;1,0;2,0;row;0,0;False;True;False;0,934000015259;True;0,792000055313
WPM1996w;experiment;2017-04-28-13-43-48;8,0;20,0;1000;0,0;1,0;3,0;2,0;row;0,0;True;False;True;0,90399980545;True;0,866000175476
WPM1996w;experiment;2017-04-28-13-43-48;8,0;21,0;1000;0,0;1,0;2,0;3,0;column;0,0;True;True;True;2,03299999237;True;0,535000085831
WPM1996w;experiment;2017-04-28-13-43-48;8,0;22,0;1000;0,0;2,0;1,0;3,0;row;0,0;False;True;False;1,43300008774;True;0,855999946594
WPM1996w;experiment;2017-04-28-13-43-48;8,0;23,0;1000;0,0;3,0;1,0;2,0;row;1,0;True;False;True;2,73399996758;True;0,805000066757
WPM1996w;experiment;2017-04-28-13-43-48;8,0;24,0;1000;2,0;3,0;1,0;0,0;row;1,0;True;False;True;1,132999897;True;1,19600009918
WPM1996w;experiment;2017-04-28-13-43-48;8,0;25,0;1000;1,0;2,0;3,0;0,0;column;1,0;True;False;False;1,66600012779;False;1,38999986649
WPM1996w;experiment;2017-04-28-13-43-48;8,0;26,0;1000;1,0;0,0;3,0;2,0;row;1,0;True;True;True;1,40000009537;True;0,723999977112
WPM1996w;experiment;2017-04-28-13-43-48;8,0;27,0;1000;2,0;1,0;3,0;0,0;column;1,0;False;False;False;3,06599998474;True;1,13400006294
WPM1996w;experiment;2017-04-28-13-43-48;8,0;28,0;1000;3,0;1,0;2,0;0,0;row;1,0;True;True;False;1,59899997711;False;0,995000123978
WPM1996w;experiment;2017-04-28-13-43-48;8,0;29,0;1000;2,0;3,0;1,0;0,0;row;0,0;True;False;True;0,766999959946;True;1,29200005531
WPM1996w;experiment;2017-04-28-13-43-48;8,0;30,0;1000;0,0;3,0;1,0;2,0;column;1,0;False;True;False;1,0;True;1,46399998665
WPM1996w;experiment;2017-04-28-13-43-48;8,0;31,0;1000;1,0;3,0;2,0;0,0;column;0,0;True;False;False;1,06700015068;False;1,19899988174
WPM1996w;experiment;2017-04-28-13-43-48;8,0;32,0;1000;2,0;0,0;1,0;3,0;row;1,0;False;True;True;3,16699981689;False;1,2990000248
WPM1996w;experiment;2017-04-28-13-43-48;8,0;33,0;1000;1,0;2,0;0,0;3,0;column;1,0;True;True;True;1,83400011063;True;1,3710000515
WPM1996w;experiment;2017-04-28-13-43-48;8,0;34,0;1000;2,0;1,0;3,0;0,0;row;1,0;True;True;True;2,23299980164;True;1,13899993896
WPM1996w;experiment;2017-04-28-13-43-48;8,0;35,0;1000;3,0;1,0;0,0;2,0;row;0,0;True;False;True;0,933000087738;True;0,794999837875
WPM1996w;experiment;2017-04-28-13-43-48;8,0;36,0;1000;2,0;3,0;1,0;0,0;row;0,0;False;True;True;0,667000055313;False;0,631000041962
WPM1996w;experiment;2017-04-28-13-43-48;8,0;37,0;1000;0,0;1,0;2,0;3,0;row;0,0;False;True;False;0,799999952316;True;1,09999990463
WPM1996w;experiment;2017-04-28-13-43-48;8,0;38,0;1000;3,0;2,0;0,0;1,0;row;1,0;False;True;True;1,40000009537;False;1,06599998474
WPM1996w;experiment;2017-04-28-13-43-48;8,0;39,0;1000;0,0;2,0;1,0;3,0;row;0,0;True;True;True;1,06699991226;True;1,04399991035
WPM1996w;experiment;2017-04-28-13-43-48;8,0;40,0;1000;2,0;3,0;0,0;1,0;column;1,0;True;True;False;4,33100008965;False;1,37099981308
WPM1996w;experiment;2017-04-28-13-43-48;8,0;41,0;1000;0,0;1,0;3,0;2,0;column;0,0;False;True;False;1,0;True;0,763999938965
WPM1996w;experiment;2017-04-28-13-43-48;8,0;42,0;1000;3,0;0,0;2,0;1,0;column;0,0;True;False;True;2,5;True;1,06100010872
WPM1996w;experiment;2017-04-28-13-43-48;8,0;43,0;1000;3,0;2,0;1,0;0,0;column;1,0;True;False;True;2,2349998951;True;1,40600013733
WPM1996w;experiment;2017-04-28-13-43-48;8,0;44,0;1000;1,0;3,0;0,0;2,0;column;1,0;False;True;False;1,88099980354;True;1,05200004578
WPM1996w;experiment;2017-04-28-13-43-48;8,0;45,0;1000;2,0;1,0;0,0;3,0;column;1,0;True;True;True;2,29999995232;True;1,43299984932
WPM1996w;experiment;2017-04-28-13-43-48;8,0;46,0;1000;0,0;2,0;1,0;3,0;column;1,0;False;False;False;1,7380001545;True;1,14499998093
WPM1996w;experiment;2017-04-28-13-43-48;8,0;47,0;1000;0,0;3,0;2,0;1,0;column;0,0;True;True;True;2,06700015068;True;1,45600008965
WPM1996w;experiment;2017-04-28-13-43-48;8,0;48,0;1000;3,0;0,0;1,0;2,0;row;1,0;True;True;True;1,73300004005;True;1,29799985886
WPM1996w;experiment;2017-04-28-13-43-48;9,0;1,0;100;0,0;3,0;2,0;1,0;row;1,0;True;True;True;2,242000103;True;0,950000047684
WPM1996w;experiment;2017-04-28-13-43-48;9,0;2,0;100;1,0;3,0;0,0;2,0;column;1,0;False;False;False;2,632999897;True;0,756000041962
WPM1996w;experiment;2017-04-28-13-43-48;9,0;3,0;100;3,0;0,0;2,0;1,0;row;0,0;True;False;True;1,56599998474;True;1,36500000954
WPM1996w;experiment;2017-04-28-13-43-48;9,0;4,0;100;1,0;0,0;3,0;2,0;row;0,0;False;False;False;1,96599984169;True;1,45700001717
WPM1996w;experiment;2017-04-28-13-43-48;9,0;5,0;100;1,0;3,0;0,0;2,0;column;0,0;False;True;False;4,33499979973;True;0,663000106812
WPM1996w;experiment;2017-04-28-13-43-48;9,0;6,0;100;1,0;0,0;2,0;3,0;column;0,0;False;False;True;1,26699995995;False;0,535000085831
WPM1996w;experiment;2017-04-28-13-43-48;9,0;7,0;100;2,0;1,0;0,0;3,0;column;0,0;True;True;True;2,16700005531;True;1,33400011063
WPM1996w;experiment;2017-04-28-13-43-48;9,0;8,0;100;3,0;1,0;0,0;2,0;column;0,0;False;True;False;2,86500000954;True;1,36299991608
WPM1996w;experiment;2017-04-28-13-43-48;9,0;9,0;100;0,0;2,0;3,0;1,0;column;1,0;True;False;True;2,69900012016;True;0,804999828339
WPM1996w;experiment;2017-04-28-13-43-48;9,0;10,0;100;0,0;1,0;2,0;3,0;row;0,0;True;False;True;2,23099994659;True;1,16799998283
WPM1996w;experiment;2017-04-28-13-43-48;9,0;11,0;100;2,0;1,0;0,0;3,0;column;1,0;False;False;False;2,73300004005;True;0,625
WPM1996w;experiment;2017-04-28-13-43-48;9,0;12,0;100;2,0;3,0;1,0;0,0;column;0,0;True;True;True;2,09899997711;True;0,632999897003
WPM1996w;experiment;2017-04-28-13-43-48;9,0;13,0;100;1,0;3,0;2,0;0,0;column;0,0;False;True;False;2,56599998474;True;0,645999908447
WPM1996w;experiment;2017-04-28-13-43-48;9,0;14,0;100;2,0;3,0;0,0;1,0;column;1,0;False;True;False;4,06599998474;True;1,32999992371
WPM1996w;experiment;2017-04-28-13-43-48;9,0;15,0;100;2,0;0,0;1,0;3,0;row;0,0;True;True;True;1,23099994659;True;0,765000104904
WPM1996w;experiment;2017-04-28-13-43-48;9,0;16,0;100;0,0;3,0;2,0;1,0;column;1,0;True;False;True;2,79999995232;True;0,680000066757
WPM1996w;experiment;2017-04-28-13-43-48;9,0;17,0;100;2,0;3,0;1,0;0,0;column;1,0;False;True;False;2,73300004005;True;1,44000005722
WPM1996w;experiment;2017-04-28-13-43-48;9,0;18,0;100;2,0;0,0;3,0;1,0;row;0,0;True;True;True;1,66599988937;True;1,49799990654
WPM1996w;experiment;2017-04-28-13-43-48;9,0;19,0;100;3,0;2,0;1,0;0,0;row;0,0;True;False;True;1,33400011063;True;1,12399983406
WPM1996w;experiment;2017-04-28-13-43-48;9,0;20,0;100;2,0;0,0;1,0;3,0;column;1,0;False;False;False;1,80099987984;True;0,700000047684
WPM1996w;experiment;2017-04-28-13-43-48;9,0;21,0;100;3,0;0,0;1,0;2,0;column;0,0;False;False;False;3,33299994469;True;1,45999979973
WPM1996w;experiment;2017-04-28-13-43-48;9,0;22,0;100;3,0;0,0;2,0;1,0;column;0,0;True;False;True;2,53399991989;True;1,19400000572
WPM1996w;experiment;2017-04-28-13-43-48;9,0;23,0;100;0,0;2,0;3,0;1,0;column;0,0;False;False;False;2,10000014305;True;0,656999826431
WPM1996w;experiment;2017-04-28-13-43-48;9,0;24,0;100;1,0;3,0;2,0;0,0;column;0,0;True;True;True;2,09899997711;True;1,43400001526
WPM1996w;experiment;2017-04-28-13-43-48;9,0;25,0;100;3,0;0,0;1,0;2,0;column;1,0;False;True;False;2,06599998474;True;1,22300004959
WPM1996w;experiment;2017-04-28-13-43-48;9,0;26,0;100;3,0;1,0;0,0;2,0;row;0,0;False;True;False;1,13400006294;True;1,30100011826
WPM1996w;experiment;2017-04-28-13-43-48;9,0;27,0;100;2,0;0,0;3,0;1,0;column;0,0;True;True;True;2,80399990082;True;0,843000173569
WPM1996w;experiment;2017-04-28-13-43-48;9,0;28,0;100;0,0;2,0;3,0;1,0;column;1,0;False;True;False;2,70000004768;True;0,553999900818
WPM1996w;experiment;2017-04-28-13-43-48;9,0;29,0;100;0,0;1,0;2,0;3,0;row;1,0;True;False;False;2,33400011063;False;1,43099999428
WPM1996w;experiment;2017-04-28-13-43-48;9,0;30,0;100;3,0;1,0;0,0;2,0;row;1,0;False;True;False;2,63100004196;True;1,2610001564
WPM1996w;experiment;2017-04-28-13-43-48;9,0;31,0;100;1,0;2,0;3,0;0,0;row;1,0;True;True;True;3,16700005531;True;1,26399993896
WPM1996w;experiment;2017-04-28-13-43-48;9,0;32,0;100;0,0;1,0;3,0;2,0;column;1,0;True;False;True;3,36699986458;True;1,09599995613
WPM1996w;experiment;2017-04-28-13-43-48;9,0;33,0;100;2,0;3,0;0,0;1,0;column;0,0;False;True;False;6,8029999733;True;1,09800004959
WPM1996w;experiment;2017-04-28-13-43-48;9,0;34,0;100;2,0;3,0;1,0;0,0;row;0,0;True;True;True;1,00100016594;True;1,07100009918
WPM1996w;experiment;2017-04-28-13-43-48;9,0;35,0;100;0,0;1,0;2,0;3,0;column;0,0;True;True;True;4,40000009537;True;1,43299984932
WPM1996w;experiment;2017-04-28-13-43-48;9,0;36,0;100;2,0;1,0;3,0;0,0;column;1,0;True;True;True;2,367000103;True;0,596999883652
WPM1996w;experiment;2017-04-28-13-43-48;9,0;37,0;100;1,0;3,0;0,0;2,0;row;0,0;True;False;True;1,03900003433;True;1,40100002289
WPM1996w;experiment;2017-04-28-13-43-48;9,0;38,0;100;3,0;0,0;1,0;2,0;column;1,0;True;True;False;2,06599998474;False;1,05800008774
WPM1996w;experiment;2017-04-28-13-43-48;9,0;39,0;100;0,0;1,0;2,0;3,0;row;1,0;False;True;True;3,367000103;False;0,821000099182
WPM1996w;experiment;2017-04-28-13-43-48;9,0;40,0;100;1,0;2,0;3,0;0,0;column;1,0;False;False;True;2,79999995232;False;0,930000066757
WPM1996w;experiment;2017-04-28-13-43-48;9,0;41,0;100;3,0;0,0;1,0;2,0;row;0,0;True;True;True;1,29999995232;True;1,46799993515
WPM1996w;experiment;2017-04-28-13-43-48;9,0;42,0;100;2,0;1,0;3,0;0,0;column;1,0;False;True;False;3,09999990463;True;0,801000118256
WPM1996w;experiment;2017-04-28-13-43-48;9,0;43,0;100;3,0;2,0;0,0;1,0;column;0,0;False;False;False;1,69900012016;True;0,827999830246
WPM1996w;experiment;2017-04-28-13-43-48;9,0;44,0;100;2,0;0,0;3,0;1,0;column;0,0;False;False;False;2,2650001049;True;1,33299994469
WPM1996w;experiment;2017-04-28-13-43-48;9,0;45,0;100;0,0;3,0;1,0;2,0;column;1,0;False;True;False;2,53800010681;True;1,0
WPM1996w;experiment;2017-04-28-13-43-48;9,0;46,0;100;1,0;3,0;0,0;2,0;column;0,0;True;True;True;1,7009999752;True;0,594999790192
WPM1996w;experiment;2017-04-28-13-43-48;9,0;47,0;100;0,0;2,0;3,0;1,0;row;1,0;False;False;False;2,26599979401;True;0,727999925613
WPM1996w;experiment;2017-04-28-13-43-48;9,0;48,0;100;2,0;3,0;1,0;0,0;column;1,0;True;False;True;3,39899992943;True;1,0
WPM1996w;experiment;2017-04-28-13-43-48;10,0;1,0;-100;0,0;3,0;2,0;1,0;column;0,0;False;False;False;2,22799992561;True;1,10500001907
WPM1996w;experiment;2017-04-28-13-43-48;10,0;2,0;-100;0,0;1,0;2,0;3,0;column;0,0;True;False;True;2,94799995422;True;0,798999786377
WPM1996w;experiment;2017-04-28-13-43-48;10,0;3,0;-100;2,0;1,0;3,0;0,0;column;1,0;False;True;False;4,48200011253;True;1,29999995232
WPM1996w;experiment;2017-04-28-13-43-48;10,0;4,0;-100;2,0;0,0;3,0;1,0;row;1,0;False;False;False;3,06199979782;True;0,567000150681
WPM1996w;experiment;2017-04-28-13-43-48;10,0;5,0;-100;0,0;1,0;2,0;3,0;row;1,0;False;True;False;2,91599988937;True;1,23799991608
WPM1996w;experiment;2017-04-28-13-43-48;10,0;6,0;-100;0,0;3,0;2,0;1,0;column;1,0;True;True;False;3,34999990463;False;0,764000177383
WPM1996w;experiment;2017-04-28-13-43-48;10,0;7,0;-100;1,0;3,0;0,0;2,0;column;1,0;True;False;True;3,98300004005;True;1,22199988365
WPM1996w;experiment;2017-04-28-13-43-48;10,0;8,0;-100;0,0;1,0;3,0;2,0;row;0,0;True;False;True;1,55000019073;True;0,598999977112
WPM1996w;experiment;2017-04-28-13-43-48;10,0;9,0;-100;2,0;1,0;0,0;3,0;column;0,0;True;True;False;2,15000009537;False;1,49300003052
WPM1996w;experiment;2017-04-28-13-43-48;10,0;10,0;-100;0,0;2,0;1,0;3,0;row;0,0;False;True;False;2,3180000782;True;1,1970000267
WPM1996w;experiment;2017-04-28-13-43-48;10,0;11,0;-100;2,0;1,0;0,0;3,0;column;1,0;False;True;False;3,31599998474;True;0,864000082016
WPM1996w;experiment;2017-04-28-13-43-48;10,0;12,0;-100;2,0;3,0;0,0;1,0;row;1,0;False;False;True;3,11699986458;False;1,03299999237
WPM1996w;experiment;2017-04-28-13-43-48;10,0;13,0;-100;2,0;3,0;1,0;0,0;row;1,0;True;True;True;2,78200006485;True;1,14700007439
WPM1996w;experiment;2017-04-28-13-43-48;10,0;14,0;-100;3,0;0,0;1,0;2,0;column;0,0;False;False;True;1,58299994469;False;0,957000017166
WPM1996w;experiment;2017-04-28-13-43-48;10,0;15,0;-100;0,0;3,0;2,0;1,0;column;0,0;True;False;True;2,5490000248;True;1,47099995613
WPM1996w;experiment;2017-04-28-13-43-48;10,0;16,0;-100;2,0;0,0;1,0;3,0;column;1,0;False;True;False;3,41499996185;True;1,29999995232
WPM1996w;experiment;2017-04-28-13-43-48;10,0;17,0;-100;0,0;3,0;1,0;2,0;column;1,0;False;False;False;3,91499996185;True;1,00500011444
WPM1996w;experiment;2017-04-28-13-43-48;10,0;18,0;-100;0,0;1,0;2,0;3,0;column;0,0;False;False;False;2,41700005531;True;1,19799995422
WPM1996w;experiment;2017-04-28-13-43-48;10,0;19,0;-100;0,0;2,0;1,0;3,0;row;0,0;True;False;True;1,58099985123;True;1,03399991989
WPM1996w;experiment;2017-04-28-13-43-48;10,0;20,0;-100;1,0;2,0;0,0;3,0;column;0,0;True;True;False;1,91400003433;False;0,668999910355
WPM1996w;experiment;2017-04-28-13-43-48;10,0;21,0;-100;0,0;3,0;1,0;2,0;row;0,0;True;True;True;1,71800017357;True;1,29399991035
WPM1996w;experiment;2017-04-28-13-43-48;10,0;22,0;-100;3,0;0,0;2,0;1,0;column;0,0;False;False;False;3,68400001526;True;1,45800018311
WPM1996w;experiment;2017-04-28-13-43-48;10,0;23,0;-100;0,0;3,0;2,0;1,0;row;1,0;True;False;True;2,25099992752;True;0,996999979019
WPM1996w;experiment;2017-04-28-13-43-48;10,0;24,0;-100;3,0;1,0;0,0;2,0;row;1,0;True;False;False;4,1819999218;False;1,0
WPM1996w;experiment;2017-04-28-13-43-48;10,0;25,0;-100;0,0;2,0;1,0;3,0;row;1,0;True;False;True;2,28099989891;True;1,47100019455
WPM1996w;experiment;2017-04-28-13-43-48;10,0;26,0;-100;2,0;3,0;1,0;0,0;column;1,0;True;False;True;2,11500000954;True;1,3710000515
WPM1996w;experiment;2017-04-28-13-43-48;10,0;27,0;-100;0,0;3,0;1,0;2,0;row;1,0;False;True;False;2,41700005531;True;1,29899978638
WPM1996w;experiment;2017-04-28-13-43-48;10,0;28,0;-100;2,0;3,0;1,0;0,0;column;1,0;False;False;False;3,71600008011;True;0,626000165939
WPM1996w;experiment;2017-04-28-13-43-48;10,0;29,0;-100;1,0;0,0;3,0;2,0;column;0,0;False;True;False;3,99099993706;True;1,30100011826
WPM1996w;experiment;2017-04-28-13-43-48;10,0;30,0;-100;1,0;3,0;0,0;2,0;row;0,0;False;True;True;2,08299994469;False;0,767999887466
WPM1996w;experiment;2017-04-28-13-43-48;10,0;31,0;-100;3,0;0,0;2,0;1,0;row;0,0;False;True;False;2,14999985695;True;1,19900012016
WPM1996w;experiment;2017-04-28-13-43-48;10,0;32,0;-100;2,0;3,0;1,0;0,0;column;0,0;True;True;True;2,75099992752;True;1,00800013542
WPM1996w;experiment;2017-04-28-13-43-48;10,0;33,0;-100;1,0;2,0;0,0;3,0;column;1,0;True;True;True;2,11400008202;True;1,13399982452
WPM1996w;experiment;2017-04-28-13-43-48;10,0;34,0;-100;2,0;1,0;3,0;0,0;row;1,0;True;True;True;2,95000004768;True;0,521999835968
WPM1996w;experiment;2017-04-28-13-43-48;10,0;35,0;-100;0,0;2,0;3,0;1,0;row;1,0;True;True;True;4,29200005531;True;1,3259999752
WPM1996w;experiment;2017-04-28-13-43-48;10,0;36,0;-100;0,0;1,0;3,0;2,0;column;0,0;False;True;True;3,51600003242;False;0,526000022888
WPM1996w;experiment;2017-04-28-13-43-48;10,0;37,0;-100;0,0;1,0;3,0;2,0;column;1,0;False;True;False;3,4470000267;True;1,33299994469
WPM1996w;experiment;2017-04-28-13-43-48;10,0;38,0;-100;2,0;1,0;3,0;0,0;row;0,0;True;False;True;2,01399993896;True;0,832000017166
WPM1996w;experiment;2017-04-28-13-43-48;10,0;39,0;-100;1,0;0,0;2,0;3,0;row;0,0;False;True;False;1,91799998283;True;0,941999912262
WPM1996w;experiment;2017-04-28-13-43-48;10,0;40,0;-100;0,0;2,0;3,0;1,0;row;1,0;False;False;True;3,382999897;False;1,32699990273
WPM1996w;experiment;2017-04-28-13-43-48;10,0;41,0;-100;1,0;3,0;2,0;0,0;row;0,0;True;True;True;1,38199996948;True;1,33400011063
WPM1996w;experiment;2017-04-28-13-43-48;10,0;42,0;-100;3,0;2,0;1,0;0,0;row;0,0;True;False;True;1,38400006294;True;1,43499994278
WPM1996w;experiment;2017-04-28-13-43-48;10,0;43,0;-100;2,0;3,0;0,0;1,0;row;0,0;True;True;True;1,0150001049;True;0,569000005722
WPM1996w;experiment;2017-04-28-13-43-48;10,0;44,0;-100;1,0;0,0;3,0;2,0;row;0,0;True;False;True;0,915000200272;True;0,565999984741
WPM1996w;experiment;2017-04-28-13-43-48;10,0;45,0;-100;0,0;3,0;2,0;1,0;row;0,0;True;True;True;0,982000112534;True;1,16599988937
WPM1996w;experiment;2017-04-28-13-43-48;10,0;46,0;-100;3,0;1,0;0,0;2,0;row;0,0;False;False;False;1,01699995995;True;1,16000008583
WPM1996w;experiment;2017-04-28-13-43-48;10,0;47,0;-100;3,0;2,0;1,0;0,0;column;0,0;False;False;False;2,54800009727;True;0,533999919891
WPM1996w;experiment;2017-04-28-13-43-48;10,0;48,0;-100;1,0;3,0;0,0;2,0;row;1,0;True;True;False;2,91900014877;False;0,830999851227
WPM1996w;experiment;2017-04-28-13-43-48;11,0;1,0;100;1,0;0,0;2,0;3,0;column;1,0;True;True;False;1,23300004005;False;1,41600012779
WPM1996w;experiment;2017-04-28-13-43-48;11,0;2,0;100;3,0;0,0;2,0;1,0;row;1,0;True;True;True;1,70000004768;True;1,27400016785
WPM1996w;experiment;2017-04-28-13-43-48;11,0;3,0;100;3,0;1,0;2,0;0,0;column;1,0;True;True;True;3,0;True;1,32499980927
WPM1996w;experiment;2017-04-28-13-43-48;11,0;4,0;100;0,0;1,0;2,0;3,0;column;1,0;True;True;True;2,26400017738;True;0,632999897003
WPM1996w;experiment;2017-04-28-13-43-48;11,0;5,0;100;1,0;2,0;3,0;0,0;column;0,0;True;False;True;2,56500005722;True;1,20399999619
WPM1996w;experiment;2017-04-28-13-43-48;11,0;6,0;100;3,0;1,0;0,0;2,0;row;0,0;True;False;True;1,3679997921;True;0,9359998703
WPM1996w;experiment;2017-04-28-13-43-48;11,0;7,0;100;2,0;0,0;3,0;1,0;row;0,0;False;False;False;1,63099980354;True;0,930999994278
WPM1996w;experiment;2017-04-28-13-43-48;11,0;8,0;100;0,0;3,0;1,0;2,0;row;0,0;False;False;False;1,89800000191;True;1,43000006676
WPM1996w;experiment;2017-04-28-13-43-48;11,0;9,0;100;3,0;1,0;0,0;2,0;column;1,0;False;True;False;3,867000103;True;1,02500009537
WPM1996w;experiment;2017-04-28-13-43-48;11,0;10,0;100;0,0;2,0;3,0;1,0;row;0,0;False;True;False;0,867000102997;True;1,03299999237
WPM1996w;experiment;2017-04-28-13-43-48;11,0;11,0;100;3,0;2,0;1,0;0,0;column;0,0;False;True;False;1,0;True;1,16899991035
WPM1996w;experiment;2017-04-28-13-43-48;11,0;12,0;100;2,0;0,0;1,0;3,0;column;1,0;True;False;True;2,40000009537;True;0,827999830246
WPM1996w;experiment;2017-04-28-13-43-48;11,0;13,0;100;1,0;2,0;0,0;3,0;column;0,0;False;True;False;2,10099983215;True;0,852999925613
WPM1996w;experiment;2017-04-28-13-43-48;11,0;14,0;100;2,0;3,0;1,0;0,0;row;0,0;False;True;False;1,2650001049;True;0,756000041962
WPM1996w;experiment;2017-04-28-13-43-48;11,0;15,0;100;2,0;1,0;0,0;3,0;row;1,0;True;True;True;2,33299994469;True;1,5
WPM1996w;experiment;2017-04-28-13-43-48;11,0;16,0;100;1,0;0,0;2,0;3,0;row;0,0;True;True;True;1,79800009727;True;0,922000169754
WPM1996w;experiment;2017-04-28-13-43-48;11,0;17,0;100;1,0;2,0;0,0;3,0;column;0,0;True;True;True;1,66499996185;True;0,599999904633
WPM1996w;experiment;2017-04-28-13-43-48;11,0;18,0;100;0,0;2,0;1,0;3,0;row;1,0;False;True;False;1,83299994469;True;0,736000061035
WPM1996w;experiment;2017-04-28-13-43-48;11,0;19,0;100;1,0;3,0;0,0;2,0;row;0,0;False;False;False;1,26700019836;True;0,934000015259
WPM1996w;experiment;2017-04-28-13-43-48;11,0;20,0;100;2,0;3,0;0,0;1,0;row;1,0;True;True;False;2,60400009155;False;0,834000110626
WPM1996w;experiment;2017-04-28-13-43-48;11,0;21,0;100;0,0;1,0;3,0;2,0;row;1,0;False;False;True;2,47099995613;False;0,960999965668
WPM1996w;experiment;2017-04-28-13-43-48;11,0;22,0;100;2,0;1,0;3,0;0,0;column;0,0;True;False;False;3,06500005722;False;0,901000022888
WPM1996w;experiment;2017-04-28-13-43-48;11,0;23,0;100;1,0;2,0;3,0;0,0;row;0,0;True;True;False;3,29999995232;False;0,766999959946
WPM1996w;experiment;2017-04-28-13-43-48;11,0;24,0;100;3,0;1,0;2,0;0,0;column;0,0;False;False;False;3,14800000191;True;0,564999818802
WPM1996w;experiment;2017-04-28-13-43-48;11,0;25,0;100;1,0;3,0;0,0;2,0;column;1,0;True;True;False;4,06699991226;False;1,30399990082
WPM1996w;experiment;2017-04-28-13-43-48;11,0;26,0;100;1,0;3,0;2,0;0,0;row;0,0;True;True;True;1,56599998474;True;0,767999887466
WPM1996w;experiment;2017-04-28-13-43-48;11,0;27,0;100;3,0;0,0;1,0;2,0;row;1,0;True;True;True;3,16599988937;True;0,868000030518
WPM1996w;experiment;2017-04-28-13-43-48;11,0;28,0;100;1,0;3,0;2,0;0,0;row;0,0;False;True;False;0,966000080109;True;0,998000144958
WPM1996w;experiment;2017-04-28-13-43-48;11,0;29,0;100;3,0;1,0;2,0;0,0;row;0,0;False;True;False;1,03400015831;True;1,16700005531
WPM1996w;experiment;2017-04-28-13-43-48;11,0;30,0;100;2,0;1,0;0,0;3,0;column;1,0;True;True;True;3,99900007248;True;1,23200011253
WPM1996w;experiment;2017-04-28-13-43-48;11,0;31,0;100;2,0;3,0;1,0;0,0;column;0,0;False;False;False;1,86800003052;True;0,956000089645
WPM1996w;experiment;2017-04-28-13-43-48;11,0;32,0;100;0,0;3,0;1,0;2,0;column;1,0;True;False;False;2,5;False;0,661999940872
WPM1996w;experiment;2017-04-28-13-43-48;11,0;33,0;100;1,0;2,0;0,0;3,0;row;0,0;False;False;False;1,70000004768;True;0,799000024796
WPM1996w;experiment;2017-04-28-13-43-48;11,0;34,0;100;3,0;2,0;0,0;1,0;row;0,0;False;False;False;1,0;True;0,727999925613
WPM1996w;experiment;2017-04-28-13-43-48;11,0;35,0;100;3,0;0,0;2,0;1,0;row;0,0;False;False;False;2,03299999237;True;0,799000024796
WPM1996w;experiment;2017-04-28-13-43-48;11,0;36,0;100;2,0;1,0;3,0;0,0;row;1,0;False;True;False;2,23399996758;True;1,26400017738
WPM1996w;experiment;2017-04-28-13-43-48;11,0;37,0;100;0,0;1,0;3,0;2,0;column;0,0;False;True;False;1,23299980164;True;0,589000225067
WPM1996w;experiment;2017-04-28-13-43-48;11,0;38,0;100;3,0;0,0;2,0;1,0;column;0,0;False;True;False;3,16600012779;True;0,967000007629
WPM1996w;experiment;2017-04-28-13-43-48;11,0;39,0;100;0,0;1,0;2,0;3,0;column;1,0;False;False;False;2,66600012779;True;1,25600004196
WPM1996w;experiment;2017-04-28-13-43-48;11,0;40,0;100;1,0;3,0;2,0;0,0;column;1,0;False;True;False;4,20600008965;True;1,19800019264
WPM1996w;experiment;2017-04-28-13-43-48;11,0;41,0;100;1,0;3,0;0,0;2,0;row;1,0;True;True;False;2,53199982643;False;1,06399989128
WPM1996w;experiment;2017-04-28-13-43-48;11,0;42,0;100;2,0;3,0;1,0;0,0;row;1,0;False;True;True;2,66600012779;False;1,125
WPM1996w;experiment;2017-04-28-13-43-48;11,0;43,0;100;1,0;0,0;2,0;3,0;column;1,0;False;False;False;2,86699986458;True;0,569999933243
WPM1996w;experiment;2017-04-28-13-43-48;11,0;44,0;100;2,0;1,0;3,0;0,0;row;0,0;False;False;False;1,13400006294;True;0,624000072479
WPM1996w;experiment;2017-04-28-13-43-48;11,0;45,0;100;3,0;1,0;0,0;2,0;column;1,0;True;False;True;3,00099992752;True;1,36800003052
WPM1996w;experiment;2017-04-28-13-43-48;11,0;46,0;100;0,0;2,0;3,0;1,0;row;1,0;True;True;False;3,06599998474;False;1,26200008392
WPM1996w;experiment;2017-04-28-13-43-48;11,0;47,0;100;0,0;3,0;2,0;1,0;column;1,0;False;False;False;4,66700005531;True;0,992000102997
WPM1996w;experiment;2017-04-28-13-43-48;11,0;48,0;100;0,0;1,0;3,0;2,0;column;0,0;True;True;True;1,69899988174;True;0,572999954224
WPM1996w;experiment;2017-04-28-13-43-48;12,0;1,0;1000;0,0;2,0;1,0;3,0;row;1,0;False;True;False;1,867000103;True;0,596999883652
WPM1996w;experiment;2017-04-28-13-43-48;12,0;2,0;1000;3,0;0,0;2,0;1,0;column;0,0;False;False;True;1,46700000763;False;0,733000040054
WPM1996w;experiment;2017-04-28-13-43-48;12,0;3,0;1000;2,0;0,0;1,0;3,0;column;0,0;False;True;False;2,60000014305;True;1,16900014877
WPM1996w;experiment;2017-04-28-13-43-48;12,0;4,0;1000;2,0;3,0;1,0;0,0;column;0,0;False;False;False;3,06699991226;True;1,01099991798
WPM1996w;experiment;2017-04-28-13-43-48;12,0;5,0;1000;0,0;2,0;1,0;3,0;row;1,0;True;True;False;3,33299994469;False;1,02900004387
WPM1996w;experiment;2017-04-28-13-43-48;12,0;6,0;1000;0,0;1,0;3,0;2,0;column;1,0;False;True;False;2,93800020218;True;0,756999969482
WPM1996w;experiment;2017-04-28-13-43-48;12,0;7,0;1000;0,0;1,0;2,0;3,0;row;1,0;True;True;True;2,86600017548;True;1,39699983597
WPM1996w;experiment;2017-04-28-13-43-48;12,0;8,0;1000;3,0;2,0;1,0;0,0;row;1,0;False;False;False;1,46700000763;True;0,765000104904
WPM1996w;experiment;2017-04-28-13-43-48;12,0;9,0;1000;1,0;0,0;2,0;3,0;column;1,0;True;True;True;1,76600003242;True;1,43299984932
WPM1996w;experiment;2017-04-28-13-43-48;12,0;10,0;1000;2,0;1,0;0,0;3,0;column;0,0;False;False;False;2,13400006294;True;1,3630001545
WPM1996w;experiment;2017-04-28-13-43-48;12,0;11,0;1000;2,0;1,0;0,0;3,0;column;0,0;True;False;True;2,20000004768;True;0,957000017166
WPM1996w;experiment;2017-04-28-13-43-48;12,0;12,0;1000;3,0;2,0;0,0;1,0;column;1,0;False;True;False;1,86699986458;True;1,43499994278
WPM1996w;experiment;2017-04-28-13-43-48;12,0;13,0;1000;0,0;2,0;3,0;1,0;row;1,0;True;False;True;1,60000014305;True;1,08200001717
WPM1996w;experiment;2017-04-28-13-43-48;12,0;14,0;1000;3,0;1,0;0,0;2,0;column;0,0;True;True;True;1,30100011826;True;1,26999998093
WPM1996w;experiment;2017-04-28-13-43-48;12,0;15,0;1000;2,0;1,0;0,0;3,0;row;0,0;True;False;True;0,866999864578;True;1,09099984169
WPM1996w;experiment;2017-04-28-13-43-48;12,0;16,0;1000;1,0;3,0;0,0;2,0;column;0,0;False;True;False;2,46499991417;True;1,40199995041
WPM1996w;experiment;2017-04-28-13-43-48;12,0;17,0;1000;1,0;2,0;3,0;0,0;column;0,0;True;True;True;1,29999995232;True;0,626999855042
WPM1996w;experiment;2017-04-28-13-43-48;12,0;18,0;1000;2,0;0,0;1,0;3,0;column;1,0;True;False;False;1,867000103;False;1,2009999752
WPM1996w;experiment;2017-04-28-13-43-48;12,0;19,0;1000;2,0;0,0;3,0;1,0;column;0,0;False;False;False;1,29899978638;True;0,592000007629
WPM1996w;experiment;2017-04-28-13-43-48;12,0;20,0;1000;3,0;1,0;2,0;0,0;column;0,0;True;False;True;1,76699995995;True;0,526999950409
WPM1996w;experiment;2017-04-28-13-43-48;12,0;21,0;1000;2,0;3,0;0,0;1,0;column;0,0;True;True;True;1,83299994469;True;1,06999993324
WPM1996w;experiment;2017-04-28-13-43-48;12,0;22,0;1000;3,0;2,0;1,0;0,0;row;0,0;False;False;False;1,29800009727;True;1,16499996185
WPM1996w;experiment;2017-04-28-13-43-48;12,0;23,0;1000;0,0;2,0;1,0;3,0;column;0,0;True;False;True;1,36699986458;True;1,23099994659
WPM1996w;experiment;2017-04-28-13-43-48;12,0;24,0;1000;2,0;0,0;1,0;3,0;column;1,0;False;True;False;3,10299992561;True;0,805999994278
WPM1996w;experiment;2017-04-28-13-43-48;12,0;25,0;1000;0,0;2,0;3,0;1,0;row;0,0;False;True;False;0,900000095367;True;1,06699991226
WPM1996w;experiment;2017-04-28-13-43-48;12,0;26,0;1000;0,0;1,0;3,0;2,0;column;1,0;True;False;True;1,36600017548;True;0,671999931335
WPM1996w;experiment;2017-04-28-13-43-48;12,0;27,0;1000;0,0;3,0;1,0;2,0;column;0,0;False;True;False;1,33500003815;True;1,3789999485
WPM1996w;experiment;2017-04-28-13-43-48;12,0;28,0;1000;3,0;1,0;0,0;2,0;column;0,0;False;False;False;2,00599980354;True;1,4279999733
WPM1996w;experiment;2017-04-28-13-43-48;12,0;29,0;1000;1,0;3,0;2,0;0,0;row;1,0;True;True;True;2,76600003242;True;1,12800002098
WPM1996w;experiment;2017-04-28-13-43-48;12,0;30,0;1000;3,0;0,0;2,0;1,0;column;1,0;True;True;False;1,90100002289;False;1,03100013733
WPM1996w;experiment;2017-04-28-13-43-48;12,0;31,0;1000;3,0;0,0;1,0;2,0;row;1,0;False;False;False;3,23299980164;True;0,795000076294
WPM1996w;experiment;2017-04-28-13-43-48;12,0;32,0;1000;2,0;1,0;0,0;3,0;row;1,0;False;True;False;2,26399993896;True;0,989000082016
WPM1996w;experiment;2017-04-28-13-43-48;12,0;33,0;1000;3,0;1,0;2,0;0,0;row;0,0;False;True;False;0,967000007629;True;0,793999910355
WPM1996w;experiment;2017-04-28-13-43-48;12,0;34,0;1000;3,0;1,0;2,0;0,0;column;1,0;True;True;True;1,63199996948;True;1,36500000954
WPM1996w;experiment;2017-04-28-13-43-48;12,0;35,0;1000;3,0;2,0;1,0;0,0;row;1,0;True;True;True;2,99900007248;True;1,08899998665
WPM1996w;experiment;2017-04-28-13-43-48;12,0;36,0;1000;3,0;1,0;0,0;2,0;row;1,0;False;True;True;3,87999987602;False;0,664000034332
WPM1996w;experiment;2017-04-28-13-43-48;12,0;37,0;1000;1,0;0,0;3,0;2,0;column;0,0;False;False;True;1,03299999237;False;1,2990000248
WPM1996w;experiment;2017-04-28-13-43-48;12,0;38,0;1000;0,0;2,0;3,0;1,0;column;0,0;False;True;False;1,89999985695;True;0,799000024796
WPM1996w;experiment;2017-04-28-13-43-48;12,0;39,0;1000;0,0;3,0;2,0;1,0;row;0,0;False;False;False;1,20000004768;True;1,35599994659
WPM1996w;experiment;2017-04-28-13-43-48;12,0;40,0;1000;3,0;2,0;1,0;0,0;row;0,0;True;True;True;0,667000055313;True;0,954999923706
WPM1996w;experiment;2017-04-28-13-43-48;12,0;41,0;1000;2,0;1,0;3,0;0,0;column;0,0;True;True;True;1,46700000763;True;0,799000024796
WPM1996w;experiment;2017-04-28-13-43-48;12,0;42,0;1000;3,0;2,0;0,0;1,0;column;1,0;True;True;True;2,20000004768;True;1,53299999237
WPM1996w;experiment;2017-04-28-13-43-48;12,0;43,0;1000;3,0;0,0;1,0;2,0;row;0,0;False;True;False;0,766999959946;True;0,805999994278
WPM1996w;experiment;2017-04-28-13-43-48;12,0;44,0;1000;0,0;1,0;3,0;2,0;row;0,0;False;False;False;1,06699991226;True;1,05999994278
WPM1996w;experiment;2017-04-28-13-43-48;12,0;45,0;1000;3,0;2,0;1,0;0,0;column;0,0;False;True;False;0,933000087738;True;0,865999937057
WPM1996w;experiment;2017-04-28-13-43-48;12,0;46,0;1000;3,0;1,0;0,0;2,0;column;1,0;True;False;True;2,2349998951;True;1,39899992943
WPM1996w;experiment;2017-04-28-13-43-48;12,0;47,0;1000;1,0;2,0;3,0;0,0;row;1,0;False;True;False;1,43400001526;True;1,42499995232
WPM1996w;experiment;2017-04-28-13-43-48;12,0;48,0;1000;0,0;2,0;3,0;1,0;column;1,0;True;True;True;2,16700005531;True;0,599999904633
WPM1996w;experiment;2017-04-28-13-43-48;13,0;1,0;1000;2,0;3,0;0,0;1,0;row;1,0;True;False;False;1,79999995232;False;0,603000164032
WPM1996w;experiment;2017-04-28-13-43-48;13,0;2,0;1000;2,0;3,0;0,0;1,0;row;1,0;True;True;True;2,03299999237;True;1,43099999428
WPM1996w;experiment;2017-04-28-13-43-48;13,0;3,0;1000;1,0;3,0;0,0;2,0;row;0,0;True;True;True;1,03400015831;True;0,898000001907
WPM1996w;experiment;2017-04-28-13-43-48;13,0;4,0;1000;1,0;0,0;3,0;2,0;column;1,0;False;True;False;2,76499986649;True;1,13499999046
WPM1996w;experiment;2017-04-28-13-43-48;13,0;5,0;1000;0,0;3,0;2,0;1,0;column;1,0;True;False;True;4,40000009537;True;1,02399992943
WPM1996w;experiment;2017-04-28-13-43-48;13,0;6,0;1000;3,0;2,0;0,0;1,0;column;0,0;False;True;False;1,70000004768;True;1,03099989891
WPM1996w;experiment;2017-04-28-13-43-48;13,0;7,0;1000;1,0;2,0;0,0;3,0;column;0,0;True;False;True;1,43200016022;True;1,16499996185
WPM1996w;experiment;2017-04-28-13-43-48;13,0;8,0;1000;3,0;0,0;1,0;2,0;column;0,0;True;False;False;2,5;False;1,16500020027
WPM1996w;experiment;2017-04-28-13-43-48;13,0;9,0;1000;2,0;1,0;0,0;3,0;row;1,0;True;True;False;5,53400015831;False;1,19899988174
WPM1996w;experiment;2017-04-28-13-43-48;13,0;10,0;1000;1,0;2,0;0,0;3,0;column;1,0;False;True;False;3,0;True;1,29500007629
WPM1996w;experiment;2017-04-28-13-43-48;13,0;11,0;1000;0,0;1,0;2,0;3,0;row;0,0;True;True;True;0,901000022888;True;0,995000123978
WPM1996w;experiment;2017-04-28-13-43-48;13,0;12,0;1000;2,0;3,0;1,0;0,0;column;0,0;True;False;True;1,86599993706;True;1,40100002289
WPM1996w;experiment;2017-04-28-13-43-48;13,0;13,0;1000;3,0;1,0;2,0;0,0;column;1,0;False;True;False;2,23300004005;True;0,967000007629
WPM1996w;experiment;2017-04-28-13-43-48;13,0;14,0;1000;3,0;2,0;1,0;0,0;column;0,0;True;False;False;1,53200006485;False;0,871999979019
WPM1996w;experiment;2017-04-28-13-43-48;13,0;15,0;1000;3,0;0,0;2,0;1,0;row;1,0;True;True;True;3,2990000248;True;0,700000047684
WPM1996w;experiment;2017-04-28-13-43-48;13,0;16,0;1000;2,0;3,0;1,0;0,0;column;1,0;False;False;False;1,99900007248;True;1,40499997139
WPM1996w;experiment;2017-04-28-13-43-48;13,0;17,0;1000;1,0;2,0;3,0;0,0;row;0,0;True;True;True;1,367000103;True;0,867000102997
WPM1996w;experiment;2017-04-28-13-43-48;13,0;18,0;1000;2,0;1,0;3,0;0,0;row;0,0;True;True;True;0,865000009537;True;1,46700000763
WPM1996w;experiment;2017-04-28-13-43-48;13,0;19,0;1000;3,0;0,0;2,0;1,0;column;1,0;False;False;False;1,9319999218;True;0,967000007629
WPM1996w;experiment;2017-04-28-13-43-48;13,0;20,0;1000;1,0;2,0;0,0;3,0;row;1,0;True;True;True;1,29999995232;True;0,798000097275
WPM1996w;experiment;2017-04-28-13-43-48;13,0;21,0;1000;2,0;0,0;3,0;1,0;column;0,0;True;False;True;1,53299999237;True;1,25300002098
WPM1996w;experiment;2017-04-28-13-43-48;13,0;22,0;1000;3,0;1,0;0,0;2,0;row;0,0;False;False;False;0,898999929428;True;0,891999959946
WPM1996w;experiment;2017-04-28-13-43-48;13,0;23,0;1000;1,0;0,0;2,0;3,0;row;1,0;False;False;False;1,93399977684;True;0,796999931335
WPM1996w;experiment;2017-04-28-13-43-48;13,0;24,0;1000;0,0;1,0;2,0;3,0;column;0,0;False;True;False;1,53199982643;True;1,23699998856
WPM1996w;experiment;2017-04-28-13-43-48;13,0;25,0;1000;3,0;0,0;2,0;1,0;row;0,0;True;True;True;1,20000004768;True;0,532999992371
WPM1996w;experiment;2017-04-28-13-43-48;13,0;26,0;1000;0,0;3,0;2,0;1,0;row;0,0;True;False;True;1,43299984932;True;1,06999993324
WPM1996w;experiment;2017-04-28-13-43-48;13,0;27,0;1000;1,0;2,0;0,0;3,0;row;0,0;False;False;False;0,799999952316;True;0,996999979019
WPM1996w;experiment;2017-04-28-13-43-48;13,0;28,0;1000;1,0;0,0;2,0;3,0;column;0,0;True;True;True;2,16799998283;True;0,878000020981
WPM1996w;experiment;2017-04-28-13-43-48;13,0;29,0;1000;2,0;0,0;1,0;3,0;column;0,0;True;True;True;2,06699991226;True;0,858000040054
WPM1996w;experiment;2017-04-28-13-43-48;13,0;30,0;1000;0,0;1,0;2,0;3,0;row;1,0;False;True;False;2,29699993134;True;0,566999912262
WPM1996w;experiment;2017-04-28-13-43-48;13,0;31,0;1000;2,0;3,0;0,0;1,0;row;0,0;False;False;False;1,26699995995;True;0,789999961853
WPM1996w;experiment;2017-04-28-13-43-48;13,0;32,0;1000;1,0;3,0;0,0;2,0;row;1,0;False;False;False;1,632999897;True;0,796000003815
WPM1996w;experiment;2017-04-28-13-43-48;13,0;33,0;1000;3,0;1,0;2,0;0,0;row;0,0;True;True;True;1,03299999237;True;0,556999921799
WPM1996w;experiment;2017-04-28-13-43-48;13,0;34,0;1000;2,0;0,0;1,0;3,0;row;0,0;False;True;False;2,83200001717;True;1,125
WPM1996w;experiment;2017-04-28-13-43-48;13,0;35,0;1000;2,0;3,0;0,0;1,0;row;1,0;False;True;False;2,20000004768;True;1,02399992943
WPM1996w;experiment;2017-04-28-13-43-48;13,0;36,0;1000;2,0;0,0;1,0;3,0;row;1,0;True;False;True;1,63399982452;True;0,56200003624
WPM1996w;experiment;2017-04-28-13-43-48;13,0;37,0;1000;1,0;3,0;2,0;0,0;row;0,0;False;True;False;0,800999879837;True;1,16100001335
WPM1996w;experiment;2017-04-28-13-43-48;13,0;38,0;1000;2,0;0,0;3,0;1,0;column;1,0;True;False;True;2,3679997921;True;1,02900004387
WPM1996w;experiment;2017-04-28-13-43-48;13,0;39,0;1000;0,0;1,0;3,0;2,0;row;1,0;True;True;True;1,73399996758;True;0,911999940872
WPM1996w;experiment;2017-04-28-13-43-48;13,0;40,0;1000;1,0;0,0;2,0;3,0;column;1,0;False;False;True;2,46499991417;False;1,43400001526
WPM1996w;experiment;2017-04-28-13-43-48;13,0;41,0;1000;1,0;0,0;3,0;2,0;column;0,0;True;True;True;1,80100011826;True;0,733999967575
WPM1996w;experiment;2017-04-28-13-43-48;13,0;42,0;1000;1,0;3,0;2,0;0,0;column;1,0;False;False;False;4,86699986458;True;0,934000015259
WPM1996w;experiment;2017-04-28-13-43-48;13,0;43,0;1000;0,0;3,0;1,0;2,0;row;1,0;False;True;True;2,46700000763;False;1,40400004387
WPM1996w;experiment;2017-04-28-13-43-48;13,0;44,0;1000;0,0;2,0;1,0;3,0;column;0,0;False;True;False;1,40100002289;True;0,932999849319
WPM1996w;experiment;2017-04-28-13-43-48;13,0;45,0;1000;1,0;2,0;3,0;0,0;row;0,0;False;True;False;0,834000110626;True;1,19900012016
WPM1996w;experiment;2017-04-28-13-43-48;13,0;46,0;1000;2,0;3,0;1,0;0,0;row;1,0;False;True;False;1,29800009727;True;1,39899992943
WPM1996w;experiment;2017-04-28-13-43-48;13,0;47,0;1000;0,0;2,0;3,0;1,0;column;1,0;False;True;False;2,1320002079;True;1,39999985695
WPM1996w;experiment;2017-04-28-13-43-48;13,0;48,0;1000;0,0;2,0;1,0;3,0;column;1,0;True;False;False;1,59800004959;False;1,22699999809
