Observer;Condition;SessionID;Block;Trial;COA;Color0;Color1;Color2;Color3;Target;Which;Match;FlipComplimentary;Response;RT;Correct;OnsetDelay
YWH1992w;game;2017-01-27-11-07-52;1,0;1,0;-100;2,0;3,0;0,0;1,0;row;1,0;False;True;False;3,0490000248;True;1,22600007057
YWH1992w;game;2017-01-27-11-07-52;1,0;2,0;-100;0,0;2,0;1,0;3,0;column;0,0;True;True;False;1,28399991989;False;0,932000160217
YWH1992w;game;2017-01-27-11-07-52;1,0;3,0;-100;1,0;0,0;3,0;2,0;column;1,0;True;False;True;1,61599993706;True;1,16700005531
YWH1992w;game;2017-01-27-11-07-52;1,0;4,0;-100;3,0;0,0;2,0;1,0;column;1,0;True;False;False;1,21399998665;False;0,596999883652
YWH1992w;game;2017-01-27-11-07-52;1,0;5,0;-100;0,0;3,0;2,0;1,0;row;0,0;False;False;True;2,51300001144;False;1,06599998474
YWH1992w;game;2017-01-27-11-07-52;1,0;6,0;-100;2,0;0,0;3,0;1,0;row;0,0;False;True;False;2,98099994659;True;1,39599990845
YWH1992w;game;2017-01-27-11-07-52;1,0;7,0;-100;1,0;2,0;3,0;0,0;column;1,0;False;True;True;1,48099994659;False;1,19800019264
YWH1992w;game;2017-01-27-11-07-52;1,0;8,0;-100;0,0;3,0;1,0;2,0;column;1,0;True;True;False;2,34899997711;False;1,00099992752
YWH1992w;game;2017-01-27-11-07-52;1,0;9,0;-100;0,0;3,0;2,0;1,0;column;0,0;True;False;False;2,71600008011;False;1,37400007248
YWH1992w;game;2017-01-27-11-07-52;1,0;10,0;-100;1,0;3,0;2,0;0,0;row;1,0;False;True;False;3,04999995232;True;0,766000032425
YWH1992w;game;2017-01-27-11-07-52;1,0;11,0;-100;2,0;1,0;0,0;3,0;column;0,0;False;False;True;2,91499996185;False;0,972999811172
YWH1992w;game;2017-01-27-11-07-52;1,0;12,0;-100;0,0;1,0;2,0;3,0;column;0,0;True;True;False;2,35000014305;False;1,39800000191
YWH1992w;game;2017-01-27-11-07-52;1,0;13,0;-100;2,0;0,0;3,0;1,0;row;1,0;False;True;False;1,04999995232;True;0,858000040054
YWH1992w;game;2017-01-27-11-07-52;1,0;14,0;-100;0,0;1,0;3,0;2,0;column;0,0;True;False;False;1,71700000763;False;1,42700004578
YWH1992w;game;2017-01-27-11-07-52;1,0;15,0;-100;0,0;3,0;1,0;2,0;row;1,0;False;False;False;2,38199996948;True;1,30399990082
YWH1992w;game;2017-01-27-11-07-52;1,0;16,0;-100;1,0;2,0;0,0;3,0;column;1,0;True;True;False;2,28399991989;False;1,30200004578
YWH1992w;game;2017-01-27-11-07-52;1,0;17,0;-100;2,0;3,0;0,0;1,0;row;1,0;True;True;True;3,1819999218;True;0,730999946594
YWH1992w;game;2017-01-27-11-07-52;1,0;18,0;-100;3,0;0,0;1,0;2,0;row;0,0;False;True;False;1,18000006676;True;1,49399995804
YWH1992w;game;2017-01-27-11-07-52;1,0;19,0;-100;1,0;3,0;0,0;2,0;row;0,0;False;False;False;1,85000014305;True;1,132999897
YWH1992w;game;2017-01-27-11-07-52;1,0;20,0;-100;0,0;1,0;3,0;2,0;row;0,0;False;False;False;2,08400011063;True;0,628999948502
YWH1992w;game;2017-01-27-11-07-52;1,0;21,0;-100;1,0;0,0;3,0;2,0;row;0,0;False;True;True;1,28399991989;False;1,23799991608
YWH1992w;game;2017-01-27-11-07-52;1,0;22,0;-100;0,0;2,0;3,0;1,0;column;0,0;False;False;False;2,08399987221;True;0,625999927521
YWH1992w;game;2017-01-27-11-07-52;1,0;23,0;-100;1,0;3,0;0,0;2,0;row;1,0;False;False;False;1,58399987221;True;1,09299993515
YWH1992w;game;2017-01-27-11-07-52;1,0;24,0;-100;0,0;3,0;2,0;1,0;column;1,0;True;True;False;1,51699995995;False;0,826999902725
YWH1992w;game;2017-01-27-11-07-52;1,0;25,0;-100;0,0;3,0;2,0;1,0;row;1,0;False;False;False;1,31699991226;True;1,46499991417
YWH1992w;game;2017-01-27-11-07-52;1,0;26,0;-100;3,0;0,0;2,0;1,0;column;0,0;False;True;False;1,5490000248;True;1,33500003815
YWH1992w;game;2017-01-27-11-07-52;1,0;27,0;-100;0,0;3,0;2,0;1,0;column;0,0;False;False;True;2,18300008774;False;0,759000062943
YWH1992w;game;2017-01-27-11-07-52;1,0;28,0;-100;3,0;2,0;0,0;1,0;column;1,0;True;False;False;2,58200001717;False;1,16400003433
YWH1992w;game;2017-01-27-11-07-52;1,0;29,0;-100;2,0;3,0;1,0;0,0;column;0,0;True;False;True;2,68299984932;True;1,29699993134
YWH1992w;game;2017-01-27-11-07-52;1,0;30,0;-100;3,0;2,0;0,0;1,0;row;0,0;True;False;True;2,15000009537;True;0,961999893188
YWH1992w;game;2017-01-27-11-07-52;1,0;31,0;-100;3,0;2,0;0,0;1,0;column;1,0;False;True;False;1,51600003242;True;1,02700018883
YWH1992w;game;2017-01-27-11-07-52;1,0;32,0;-100;3,0;1,0;0,0;2,0;row;0,0;False;True;False;1,8140001297;True;0,669999837875
YWH1992w;game;2017-01-27-11-07-52;1,0;33,0;-100;3,0;2,0;1,0;0,0;column;1,0;True;True;False;2,11699986458;False;0,697999954224
YWH1992w;game;2017-01-27-11-07-52;1,0;34,0;-100;3,0;2,0;1,0;0,0;column;0,0;True;False;True;2,74899983406;True;0,996000051498
YWH1992w;game;2017-01-27-11-07-52;1,0;35,0;-100;2,0;0,0;3,0;1,0;column;1,0;False;False;True;2,54899978638;False;1,3639998436
YWH1992w;game;2017-01-27-11-07-52;1,0;36,0;-100;1,0;0,0;2,0;3,0;row;0,0;True;True;True;2,25;True;0,664999961853
YWH1992w;game;2017-01-27-11-07-52;1,0;37,0;-100;2,0;1,0;3,0;0,0;row;1,0;True;False;True;1,64899992943;True;1,49900007248
YWH1992w;game;2017-01-27-11-07-52;1,0;38,0;-100;2,0;3,0;1,0;0,0;row;0,0;False;False;True;1,95000004768;False;0,934000015259
YWH1992w;game;2017-01-27-11-07-52;1,0;39,0;-100;3,0;0,0;1,0;2,0;column;0,0;False;True;False;2,38300013542;True;0,891999959946
YWH1992w;game;2017-01-27-11-07-52;1,0;40,0;-100;1,0;2,0;0,0;3,0;column;0,0;False;True;True;2,25;False;1,19199991226
YWH1992w;game;2017-01-27-11-07-52;1,0;41,0;-100;0,0;1,0;3,0;2,0;column;1,0;True;False;False;1,75;False;1,3599998951
YWH1992w;game;2017-01-27-11-07-52;1,0;42,0;-100;3,0;1,0;2,0;0,0;row;1,0;True;True;False;2,14900016785;False;0,900000095367
YWH1992w;game;2017-01-27-11-07-52;1,0;43,0;-100;2,0;0,0;3,0;1,0;column;0,0;True;False;True;2,01600003242;True;1,29800009727
YWH1992w;game;2017-01-27-11-07-52;1,0;44,0;-100;0,0;3,0;1,0;2,0;column;1,0;False;True;True;1,382999897;False;1,46700000763
YWH1992w;game;2017-01-27-11-07-52;1,0;45,0;-100;1,0;3,0;2,0;0,0;column;1,0;False;True;True;2,38300013542;False;0,729000091553
YWH1992w;game;2017-01-27-11-07-52;1,0;46,0;-100;2,0;0,0;1,0;3,0;row;0,0;True;False;False;2,31699991226;False;0,838999986649
YWH1992w;game;2017-01-27-11-07-52;1,0;47,0;-100;3,0;1,0;0,0;2,0;column;0,0;True;False;False;1,35100007057;False;0,770999908447
YWH1992w;game;2017-01-27-11-07-52;1,0;48,0;-100;1,0;0,0;3,0;2,0;column;0,0;False;True;True;1,382999897;False;1,46399998665
YWH1992w;game;2017-01-27-11-07-52;2,0;1,0;100;2,0;1,0;3,0;0,0;row;0,0;False;True;True;1,39899992943;False;1,0490000248
YWH1992w;game;2017-01-27-11-07-52;2,0;2,0;100;2,0;0,0;3,0;1,0;column;0,0;True;True;False;0,967000007629;False;0,957999944687
YWH1992w;game;2017-01-27-11-07-52;2,0;3,0;100;3,0;2,0;1,0;0,0;row;1,0;True;True;True;1,60000014305;True;1,02600002289
YWH1992w;game;2017-01-27-11-07-52;2,0;4,0;100;2,0;3,0;0,0;1,0;row;1,0;True;False;True;1,10199999809;True;0,765000104904
YWH1992w;game;2017-01-27-11-07-52;2,0;5,0;100;2,0;0,0;1,0;3,0;row;0,0;True;True;False;1,73100018501;False;0,760999917984
YWH1992w;game;2017-01-27-11-07-52;2,0;6,0;100;3,0;1,0;0,0;2,0;column;0,0;False;False;True;1,16699981689;False;1,36100006104
YWH1992w;game;2017-01-27-11-07-52;2,0;7,0;100;1,0;3,0;0,0;2,0;row;1,0;True;True;True;0,93399977684;True;0,865000009537
YWH1992w;game;2017-01-27-11-07-52;2,0;8,0;100;1,0;2,0;0,0;3,0;row;0,0;False;True;True;1,03299999237;False;0,924999952316
YWH1992w;game;2017-01-27-11-07-52;2,0;9,0;100;1,0;0,0;3,0;2,0;row;0,0;True;True;False;1,76600003242;False;1,06299996376
YWH1992w;game;2017-01-27-11-07-52;2,0;10,0;100;0,0;1,0;3,0;2,0;column;0,0;True;False;False;1,99900007248;False;1,36699986458
YWH1992w;game;2017-01-27-11-07-52;2,0;11,0;100;3,0;0,0;2,0;1,0;column;0,0;True;True;True;1,56699991226;True;0,895999908447
YWH1992w;game;2017-01-27-11-07-52;2,0;12,0;100;3,0;0,0;1,0;2,0;row;0,0;False;True;True;2,03399991989;False;1,4319999218
YWH1992w;game;2017-01-27-11-07-52;2,0;13,0;100;0,0;1,0;2,0;3,0;row;1,0;True;False;True;1,46700000763;True;0,969000101089
YWH1992w;game;2017-01-27-11-07-52;2,0;14,0;100;1,0;2,0;3,0;0,0;row;1,0;False;True;True;1,2990000248;False;0,697999954224
YWH1992w;game;2017-01-27-11-07-52;2,0;15,0;100;1,0;3,0;0,0;2,0;row;0,0;False;True;False;1,83100008965;True;1,13800001144
YWH1992w;game;2017-01-27-11-07-52;2,0;16,0;100;0,0;2,0;3,0;1,0;row;1,0;True;True;True;1,20000004768;True;1,13899993896
YWH1992w;game;2017-01-27-11-07-52;2,0;17,0;100;0,0;1,0;2,0;3,0;row;0,0;False;False;True;1,33399987221;False;0,698999881744
YWH1992w;game;2017-01-27-11-07-52;2,0;18,0;100;3,0;1,0;2,0;0,0;row;0,0;True;False;False;2,16600012779;False;0,865999937057
YWH1992w;game;2017-01-27-11-07-52;2,0;19,0;100;1,0;3,0;2,0;0,0;column;0,0;False;False;True;1,90000009537;False;0,630000114441
YWH1992w;game;2017-01-27-11-07-52;2,0;20,0;100;3,0;1,0;2,0;0,0;column;1,0;True;False;True;2,46599984169;True;0,929000139236
YWH1992w;game;2017-01-27-11-07-52;2,0;21,0;100;0,0;3,0;1,0;2,0;row;0,0;False;False;True;1,79999995232;False;0,967000007629
YWH1992w;game;2017-01-27-11-07-52;2,0;22,0;100;3,0;0,0;1,0;2,0;column;1,0;False;True;True;2,39899992943;False;1,47300004959
YWH1992w;game;2017-01-27-11-07-52;2,0;23,0;100;1,0;2,0;3,0;0,0;row;0,0;False;False;False;1,20000004768;True;1,3630001545
YWH1992w;game;2017-01-27-11-07-52;2,0;24,0;100;2,0;0,0;3,0;1,0;column;1,0;True;True;True;2,76599979401;True;1,22799992561
YWH1992w;game;2017-01-27-11-07-52;2,0;25,0;100;0,0;1,0;3,0;2,0;row;0,0;True;False;True;1,86599993706;True;1,25900006294
YWH1992w;game;2017-01-27-11-07-52;2,0;26,0;100;2,0;3,0;1,0;0,0;row;1,0;False;True;True;0,898999929428;False;0,735000133514
YWH1992w;game;2017-01-27-11-07-52;2,0;27,0;100;2,0;0,0;1,0;3,0;column;1,0;False;False;True;1,86699986458;False;0,736999988556
YWH1992w;game;2017-01-27-11-07-52;2,0;28,0;100;3,0;0,0;2,0;1,0;row;1,0;False;False;False;1,90000009537;True;0,865999937057
YWH1992w;game;2017-01-27-11-07-52;2,0;29,0;100;0,0;3,0;2,0;1,0;column;0,0;True;False;True;2,83399987221;True;0,828000068665
YWH1992w;game;2017-01-27-11-07-52;2,0;30,0;100;0,0;1,0;2,0;3,0;column;1,0;True;True;True;2,53299999237;True;0,933000087738
YWH1992w;game;2017-01-27-11-07-52;2,0;31,0;100;1,0;2,0;0,0;3,0;column;0,0;False;True;False;1,43300008774;True;1,52300000191
YWH1992w;game;2017-01-27-11-07-52;2,0;32,0;100;1,0;2,0;3,0;0,0;column;0,0;False;True;False;1,76600003242;True;0,629999876022
YWH1992w;game;2017-01-27-11-07-52;2,0;33,0;100;1,0;2,0;0,0;3,0;row;1,0;True;False;False;1,53299999237;False;0,923000097275
YWH1992w;game;2017-01-27-11-07-52;2,0;34,0;100;0,0;3,0;2,0;1,0;row;1,0;True;True;False;3,19999980927;False;1,12700009346
YWH1992w;game;2017-01-27-11-07-52;2,0;35,0;100;1,0;2,0;3,0;0,0;column;1,0;True;False;False;1,56599998474;False;1,09200000763
YWH1992w;game;2017-01-27-11-07-52;2,0;36,0;100;3,0;1,0;0,0;2,0;row;0,0;True;True;False;2,66700005531;False;1,09699988365
YWH1992w;game;2017-01-27-11-07-52;2,0;37,0;100;0,0;3,0;2,0;1,0;column;1,0;True;True;True;1,76699995995;True;1,4319999218
YWH1992w;game;2017-01-27-11-07-52;2,0;38,0;100;1,0;3,0;2,0;0,0;column;0,0;True;True;False;1,867000103;False;1,09699988365
YWH1992w;game;2017-01-27-11-07-52;2,0;39,0;100;2,0;0,0;3,0;1,0;column;0,0;False;False;False;1,29999995232;True;1,22800016403
YWH1992w;game;2017-01-27-11-07-52;2,0;40,0;100;3,0;0,0;1,0;2,0;column;1,0;True;False;False;1,20100021362;False;1,16600012779
YWH1992w;game;2017-01-27-11-07-52;2,0;41,0;100;1,0;2,0;3,0;0,0;column;1,0;False;False;False;1,5;True;1,32800006866
YWH1992w;game;2017-01-27-11-07-52;2,0;42,0;100;0,0;3,0;1,0;2,0;row;1,0;False;True;False;2,2990000248;True;1,00699996948
YWH1992w;game;2017-01-27-11-07-52;2,0;43,0;100;1,0;2,0;0,0;3,0;row;1,0;False;True;False;1,53299999237;True;1,33200001717
YWH1992w;game;2017-01-27-11-07-52;2,0;44,0;100;3,0;0,0;2,0;1,0;row;0,0;False;True;False;1,367000103;True;1,03400015831
YWH1992w;game;2017-01-27-11-07-52;2,0;45,0;100;0,0;3,0;1,0;2,0;row;1,0;True;True;False;2,43400001526;False;1,06500005722
YWH1992w;game;2017-01-27-11-07-52;2,0;46,0;100;1,0;0,0;2,0;3,0;column;0,0;False;False;False;2,36599993706;True;1,46499991417
YWH1992w;game;2017-01-27-11-07-52;2,0;47,0;100;2,0;1,0;0,0;3,0;row;1,0;True;True;False;1,83399987221;False;1,16700005531
YWH1992w;game;2017-01-27-11-07-52;2,0;48,0;100;3,0;0,0;1,0;2,0;column;0,0;False;False;False;1,26699995995;True;1,06399989128
YWH1992w;game;2017-01-27-11-07-52;3,0;1,0;1000;1,0;0,0;3,0;2,0;column;1,0;True;False;True;1,46799993515;True;1,39699983597
YWH1992w;game;2017-01-27-11-07-52;3,0;2,0;1000;0,0;3,0;2,0;1,0;column;1,0;True;True;False;1,7990000248;False;0,795000076294
YWH1992w;game;2017-01-27-11-07-52;3,0;3,0;1000;3,0;2,0;0,0;1,0;row;0,0;True;True;False;2,16599988937;False;1,22699999809
YWH1992w;game;2017-01-27-11-07-52;3,0;4,0;1000;3,0;1,0;0,0;2,0;row;1,0;False;True;True;3,39800000191;False;0,658999919891
YWH1992w;game;2017-01-27-11-07-52;3,0;5,0;1000;2,0;3,0;1,0;0,0;row;1,0;False;True;False;3,26499986649;True;0,662000179291
YWH1992w;game;2017-01-27-11-07-52;3,0;6,0;1000;3,0;0,0;1,0;2,0;row;0,0;False;True;True;1,46700000763;False;0,996999979019
YWH1992w;game;2017-01-27-11-07-52;3,0;7,0;1000;1,0;0,0;2,0;3,0;column;0,0;False;False;False;2,16499996185;True;0,832999944687
YWH1992w;game;2017-01-27-11-07-52;3,0;8,0;1000;0,0;3,0;2,0;1,0;column;0,0;False;True;False;3,03200006485;True;0,531999826431
YWH1992w;game;2017-01-27-11-07-52;3,0;9,0;1000;1,0;0,0;2,0;3,0;row;0,0;False;False;True;3,33399987221;False;1,49099993706
YWH1992w;game;2017-01-27-11-07-52;3,0;10,0;1000;0,0;1,0;2,0;3,0;row;0,0;True;True;False;1,76699995995;False;1,19400000572
YWH1992w;game;2017-01-27-11-07-52;3,0;11,0;1000;1,0;3,0;0,0;2,0;column;1,0;True;True;False;1,79999995232;False;0,769000053406
YWH1992w;game;2017-01-27-11-07-52;3,0;12,0;1000;0,0;1,0;2,0;3,0;row;0,0;False;False;True;1,13400006294;False;1,26300001144
YWH1992w;game;2017-01-27-11-07-52;3,0;13,0;1000;1,0;2,0;0,0;3,0;row;0,0;False;False;False;1,96600008011;True;0,769999980927
YWH1992w;game;2017-01-27-11-07-52;3,0;14,0;1000;1,0;2,0;3,0;0,0;row;1,0;False;True;False;2,5;True;1,25800013542
YWH1992w;game;2017-01-27-11-07-52;3,0;15,0;1000;0,0;3,0;2,0;1,0;row;1,0;True;True;True;3,2990000248;True;0,525000095367
YWH1992w;game;2017-01-27-11-07-52;3,0;16,0;1000;0,0;3,0;1,0;2,0;column;0,0;True;True;False;1,89999985695;False;1,09699988365
YWH1992w;game;2017-01-27-11-07-52;3,0;17,0;1000;3,0;2,0;1,0;0,0;row;0,0;True;False;True;1,86600017548;True;0,796999931335
YWH1992w;game;2017-01-27-11-07-52;3,0;18,0;1000;0,0;1,0;3,0;2,0;row;1,0;True;True;True;2,83299994469;True;0,958000183105
YWH1992w;game;2017-01-27-11-07-52;3,0;19,0;1000;2,0;0,0;1,0;3,0;row;1,0;True;False;True;3,0649998188;True;1,125
YWH1992w;game;2017-01-27-11-07-52;3,0;20,0;1000;0,0;2,0;1,0;3,0;row;1,0;True;True;True;3,23399996758;True;1,09999990463
YWH1992w;game;2017-01-27-11-07-52;3,0;21,0;1000;0,0;3,0;2,0;1,0;row;0,0;False;False;True;2,89800000191;False;0,766999959946
YWH1992w;game;2017-01-27-11-07-52;3,0;22,0;1000;2,0;3,0;0,0;1,0;row;1,0;True;False;False;1,632999897;False;0,697000026703
YWH1992w;game;2017-01-27-11-07-52;3,0;23,0;1000;2,0;1,0;3,0;0,0;column;0,0;False;True;False;1,30099987984;True;1,09699988365
YWH1992w;game;2017-01-27-11-07-52;3,0;24,0;1000;2,0;3,0;0,0;1,0;column;1,0;False;True;False;1,73300004005;True;0,601000070572
YWH1992w;game;2017-01-27-11-07-52;3,0;25,0;1000;3,0;1,0;0,0;2,0;column;1,0;False;False;False;2,76699995995;True;0,598999977112
YWH1992w;game;2017-01-27-11-07-52;3,0;26,0;1000;3,0;0,0;1,0;2,0;row;1,0;False;False;False;0,966000080109;True;1,46700000763
YWH1992w;game;2017-01-27-11-07-52;3,0;27,0;1000;3,0;0,0;1,0;2,0;column;1,0;True;True;True;2,36800003052;True;1,46000003815
YWH1992w;game;2017-01-27-11-07-52;3,0;28,0;1000;1,0;2,0;3,0;0,0;row;0,0;False;True;False;2,53299999237;True;0,835000038147
YWH1992w;game;2017-01-27-11-07-52;3,0;29,0;1000;2,0;1,0;3,0;0,0;column;1,0;False;False;False;1,29999995232;True;1,09299993515
YWH1992w;game;2017-01-27-11-07-52;3,0;30,0;1000;0,0;1,0;2,0;3,0;row;1,0;False;True;False;1,76600003242;True;0,865999937057
YWH1992w;game;2017-01-27-11-07-52;3,0;31,0;1000;0,0;3,0;1,0;2,0;row;0,0;False;False;False;1,76599979401;True;0,730000019073
YWH1992w;game;2017-01-27-11-07-52;3,0;32,0;1000;3,0;0,0;2,0;1,0;column;1,0;True;True;True;1,56700015068;True;0,735999822617
YWH1992w;game;2017-01-27-11-07-52;3,0;33,0;1000;2,0;3,0;1,0;0,0;column;0,0;True;True;False;1,0;False;0,895000219345
YWH1992w;game;2017-01-27-11-07-52;3,0;34,0;1000;0,0;1,0;3,0;2,0;column;0,0;True;False;True;1,39999985695;True;0,800999879837
YWH1992w;game;2017-01-27-11-07-52;3,0;35,0;1000;2,0;1,0;3,0;0,0;row;1,0;False;False;False;0,832000017166;True;0,572000026703
YWH1992w;game;2017-01-27-11-07-52;3,0;36,0;1000;0,0;3,0;2,0;1,0;row;0,0;True;False;True;1,40000009537;True;0,733000040054
YWH1992w;game;2017-01-27-11-07-52;3,0;37,0;1000;1,0;0,0;2,0;3,0;row;0,0;True;False;False;0,967000007629;False;0,993999958038
YWH1992w;game;2017-01-27-11-07-52;3,0;38,0;1000;2,0;1,0;0,0;3,0;row;0,0;True;True;True;2,03299999237;True;0,932000160217
YWH1992w;game;2017-01-27-11-07-52;3,0;39,0;1000;3,0;0,0;1,0;2,0;column;1,0;False;True;False;1,29999995232;True;0,605000019073
YWH1992w;game;2017-01-27-11-07-52;3,0;40,0;1000;0,0;2,0;3,0;1,0;row;0,0;False;True;False;1,83299994469;True;1,39800000191
YWH1992w;game;2017-01-27-11-07-52;3,0;41,0;1000;1,0;2,0;3,0;0,0;column;0,0;False;False;False;1,19799995422;True;1,29199981689
YWH1992w;game;2017-01-27-11-07-52;3,0;42,0;1000;1,0;2,0;0,0;3,0;row;1,0;True;True;False;1,16700005531;False;0,927999973297
YWH1992w;game;2017-01-27-11-07-52;3,0;43,0;1000;2,0;0,0;1,0;3,0;row;1,0;False;False;False;1,367000103;True;1,03100013733
YWH1992w;game;2017-01-27-11-07-52;3,0;44,0;1000;1,0;2,0;0,0;3,0;column;1,0;True;True;False;2,90000009537;False;1,23399996758
YWH1992w;game;2017-01-27-11-07-52;3,0;45,0;1000;0,0;1,0;3,0;2,0;column;1,0;False;True;False;1,29999995232;True;0,663000106812
YWH1992w;game;2017-01-27-11-07-52;3,0;46,0;1000;0,0;2,0;3,0;1,0;row;1,0;False;True;False;1,7009999752;True;0,698999881744
YWH1992w;game;2017-01-27-11-07-52;3,0;47,0;1000;1,0;3,0;0,0;2,0;row;1,0;True;True;False;1,06599998474;False;1,36100006104
YWH1992w;game;2017-01-27-11-07-52;3,0;48,0;1000;2,0;3,0;0,0;1,0;row;1,0;False;True;False;1,46499991417;True;0,929999828339
YWH1992w;game;2017-01-27-11-07-52;4,0;1,0;100;2,0;1,0;3,0;0,0;row;1,0;True;False;False;1,00100016594;False;1,24799990654
YWH1992w;game;2017-01-27-11-07-52;4,0;2,0;100;3,0;2,0;0,0;1,0;column;0,0;True;False;False;1,43299984932;False;1,49700021744
YWH1992w;game;2017-01-27-11-07-52;4,0;3,0;100;3,0;2,0;1,0;0,0;row;1,0;False;False;False;2,70000004768;True;0,588999986649
YWH1992w;game;2017-01-27-11-07-52;4,0;4,0;100;2,0;3,0;0,0;1,0;column;0,0;True;True;False;2,46499991417;False;1,39600014687
YWH1992w;game;2017-01-27-11-07-52;4,0;5,0;100;3,0;1,0;2,0;0,0;column;1,0;False;True;True;1,90000009537;False;1,10500001907
YWH1992w;game;2017-01-27-11-07-52;4,0;6,0;100;2,0;3,0;1,0;0,0;row;0,0;False;False;False;3,0640001297;True;0,861999988556
YWH1992w;game;2017-01-27-11-07-52;4,0;7,0;100;1,0;2,0;0,0;3,0;column;1,0;True;True;True;2,26699995995;True;0,631999969482
YWH1992w;game;2017-01-27-11-07-52;4,0;8,0;100;2,0;1,0;0,0;3,0;row;0,0;False;True;True;2,50099992752;False;0,869999885559
YWH1992w;game;2017-01-27-11-07-52;4,0;9,0;100;3,0;2,0;0,0;1,0;row;1,0;True;False;True;2,132999897;True;1,13199996948
YWH1992w;game;2017-01-27-11-07-52;4,0;10,0;100;3,0;1,0;2,0;0,0;row;1,0;True;True;True;1,43499994278;True;1,33200001717
YWH1992w;game;2017-01-27-11-07-52;4,0;11,0;100;2,0;0,0;1,0;3,0;row;1,0;False;True;False;1,632999897;True;0,598999977112
YWH1992w;game;2017-01-27-11-07-52;4,0;12,0;100;2,0;1,0;3,0;0,0;row;0,0;True;False;False;5,89999985695;False;0,601999998093
YWH1992w;game;2017-01-27-11-07-52;4,0;13,0;100;3,0;1,0;2,0;0,0;row;0,0;False;False;False;0,967000007629;True;1,32699990273
YWH1992w;game;2017-01-27-11-07-52;4,0;14,0;100;3,0;2,0;0,0;1,0;column;0,0;False;False;False;1,36500000954;True;0,705999851227
YWH1992w;game;2017-01-27-11-07-52;4,0;15,0;100;0,0;1,0;2,0;3,0;row;1,0;False;False;True;1,56599998474;False;0,628000020981
YWH1992w;game;2017-01-27-11-07-52;4,0;16,0;100;0,0;2,0;3,0;1,0;column;0,0;True;True;False;1,70000004768;False;1,40100002289
YWH1992w;game;2017-01-27-11-07-52;4,0;17,0;100;3,0;1,0;0,0;2,0;column;1,0;False;False;False;1,86599993706;True;0,830999851227
YWH1992w;game;2017-01-27-11-07-52;4,0;18,0;100;1,0;2,0;3,0;0,0;row;1,0;True;False;True;1,40000009537;True;1,03900003433
YWH1992w;game;2017-01-27-11-07-52;4,0;19,0;100;0,0;3,0;2,0;1,0;row;1,0;False;True;False;1,632999897;True;0,766000032425
YWH1992w;game;2017-01-27-11-07-52;4,0;20,0;100;0,0;2,0;1,0;3,0;row;0,0;True;True;True;1,56699991226;True;1,3599998951
YWH1992w;game;2017-01-27-11-07-52;4,0;21,0;100;2,0;3,0;0,0;1,0;row;1,0;False;True;False;1,86699986458;True;0,593000173569
YWH1992w;game;2017-01-27-11-07-52;4,0;22,0;100;2,0;0,0;1,0;3,0;row;0,0;False;True;False;2,40000009537;True;0,930999994278
YWH1992w;game;2017-01-27-11-07-52;4,0;23,0;100;0,0;2,0;3,0;1,0;row;0,0;False;True;False;1,59800004959;True;1,36299991608
YWH1992w;game;2017-01-27-11-07-52;4,0;24,0;100;0,0;3,0;1,0;2,0;column;1,0;True;False;False;1,39800000191;False;1,46000003815
YWH1992w;game;2017-01-27-11-07-52;4,0;25,0;100;3,0;0,0;2,0;1,0;column;0,0;False;True;False;1,30099987984;True;1,32999992371
YWH1992w;game;2017-01-27-11-07-52;4,0;26,0;100;2,0;3,0;1,0;0,0;row;0,0;True;False;False;0,975000143051;False;1,22699999809
YWH1992w;game;2017-01-27-11-07-52;4,0;27,0;100;1,0;3,0;0,0;2,0;column;0,0;False;True;False;1,96700000763;True;0,699000120163
YWH1992w;game;2017-01-27-11-07-52;4,0;28,0;100;1,0;3,0;2,0;0,0;column;1,0;True;False;False;1,33400011063;False;0,802999973297
YWH1992w;game;2017-01-27-11-07-52;4,0;29,0;100;2,0;0,0;3,0;1,0;column;1,0;False;False;True;1,93400001526;False;0,996000051498
YWH1992w;game;2017-01-27-11-07-52;4,0;30,0;100;2,0;3,0;1,0;0,0;column;1,0;False;True;False;1,632999897;True;0,962000131607
YWH1992w;game;2017-01-27-11-07-52;4,0;31,0;100;3,0;2,0;0,0;1,0;row;0,0;True;False;True;2,76600003242;True;1,03899979591
YWH1992w;game;2017-01-27-11-07-52;4,0;32,0;100;3,0;0,0;1,0;2,0;row;1,0;False;False;False;1,66700005531;True;1,43300008774
YWH1992w;game;2017-01-27-11-07-52;4,0;33,0;100;0,0;1,0;2,0;3,0;column;1,0;False;False;False;2,16600012779;True;0,769999980927
YWH1992w;game;2017-01-27-11-07-52;4,0;34,0;100;2,0;1,0;3,0;0,0;row;1,0;False;True;False;1,56599998474;True;0,661999940872
YWH1992w;game;2017-01-27-11-07-52;4,0;35,0;100;1,0;0,0;3,0;2,0;row;0,0;False;True;False;2,06599998474;True;1,33100008965
YWH1992w;game;2017-01-27-11-07-52;4,0;36,0;100;0,0;2,0;1,0;3,0;column;1,0;False;True;False;1,23399996758;True;1,39299988747
YWH1992w;game;2017-01-27-11-07-52;4,0;37,0;100;0,0;2,0;1,0;3,0;row;1,0;False;False;False;1,5;True;1,09899997711
YWH1992w;game;2017-01-27-11-07-52;4,0;38,0;100;0,0;3,0;1,0;2,0;column;1,0;False;True;False;1,66599988937;True;1,02499985695
YWH1992w;game;2017-01-27-11-07-52;4,0;39,0;100;1,0;0,0;3,0;2,0;column;1,0;True;True;False;1,96499991417;False;1,03200006485
YWH1992w;game;2017-01-27-11-07-52;4,0;40,0;100;3,0;0,0;2,0;1,0;row;1,0;True;True;True;1,5;True;1,37000012398
YWH1992w;game;2017-01-27-11-07-52;4,0;41,0;100;0,0;3,0;1,0;2,0;column;0,0;False;True;False;1,867000103;True;1,4319999218
YWH1992w;game;2017-01-27-11-07-52;4,0;42,0;100;1,0;0,0;2,0;3,0;row;0,0;False;False;False;1,33200001717;True;1,42599987984
YWH1992w;game;2017-01-27-11-07-52;4,0;43,0;100;0,0;3,0;1,0;2,0;column;0,0;True;False;False;1,23199987411;False;0,727999925613
YWH1992w;game;2017-01-27-11-07-52;4,0;44,0;100;1,0;2,0;0,0;3,0;column;1,0;False;True;False;1,30100011826;True;1,29800009727
YWH1992w;game;2017-01-27-11-07-52;4,0;45,0;100;3,0;2,0;0,0;1,0;column;1,0;True;False;True;2,56699991226;True;0,868000030518
YWH1992w;game;2017-01-27-11-07-52;4,0;46,0;100;2,0;0,0;3,0;1,0;row;1,0;True;True;True;1,23300004005;True;0,526000022888
YWH1992w;game;2017-01-27-11-07-52;4,0;47,0;100;3,0;2,0;0,0;1,0;column;1,0;False;True;False;1,73400020599;True;0,524999856949
YWH1992w;game;2017-01-27-11-07-52;4,0;48,0;100;2,0;3,0;1,0;0,0;column;1,0;True;True;False;3,49899983406;False;0,927999973297
YWH1992w;game;2017-01-27-11-07-52;5,0;1,0;1000;3,0;1,0;0,0;2,0;column;1,0;True;True;False;1,26700019836;False;1,39499998093
YWH1992w;game;2017-01-27-11-07-52;5,0;2,0;1000;0,0;3,0;1,0;2,0;row;0,0;True;True;False;1,16599988937;False;1,03399991989
YWH1992w;game;2017-01-27-11-07-52;5,0;3,0;1000;0,0;2,0;1,0;3,0;column;0,0;False;False;False;1,43299984932;True;0,99799990654
YWH1992w;game;2017-01-27-11-07-52;5,0;4,0;1000;0,0;2,0;1,0;3,0;column;0,0;True;True;False;3,46700000763;False;1,32299995422
YWH1992w;game;2017-01-27-11-07-52;5,0;5,0;1000;0,0;2,0;3,0;1,0;column;1,0;False;True;False;1,367000103;True;1,46600008011
YWH1992w;game;2017-01-27-11-07-52;5,0;6,0;1000;1,0;0,0;3,0;2,0;row;0,0;False;False;False;1,79999995232;True;1,0649998188
YWH1992w;game;2017-01-27-11-07-52;5,0;7,0;1000;3,0;1,0;2,0;0,0;row;1,0;True;True;False;2,06599998474;False;0,731999874115
YWH1992w;game;2017-01-27-11-07-52;5,0;8,0;1000;1,0;2,0;0,0;3,0;column;1,0;False;False;True;2,59800004959;False;1,09500002861
YWH1992w;game;2017-01-27-11-07-52;5,0;9,0;1000;1,0;3,0;0,0;2,0;row;0,0;False;True;False;1,86500000954;True;0,927000045776
YWH1992w;game;2017-01-27-11-07-52;5,0;10,0;1000;2,0;0,0;1,0;3,0;column;0,0;True;False;False;1,93099999428;False;0,731999874115
YWH1992w;game;2017-01-27-11-07-52;5,0;11,0;1000;0,0;1,0;3,0;2,0;row;1,0;False;False;False;1,33400011063;True;1,33099985123
YWH1992w;game;2017-01-27-11-07-52;5,0;12,0;1000;3,0;2,0;0,0;1,0;column;1,0;False;True;False;2,03299999237;True;1,43799996376
YWH1992w;game;2017-01-27-11-07-52;5,0;13,0;1000;2,0;3,0;0,0;1,0;column;0,0;True;True;True;3,46599984169;True;0,799000024796
YWH1992w;game;2017-01-27-11-07-52;5,0;14,0;1000;3,0;2,0;0,0;1,0;column;0,0;False;True;False;1,73399996758;True;0,963000059128
YWH1992w;game;2017-01-27-11-07-52;5,0;15,0;1000;3,0;1,0;2,0;0,0;column;1,0;False;True;True;4,39899992943;False;0,994999885559
YWH1992w;game;2017-01-27-11-07-52;5,0;16,0;1000;0,0;2,0;3,0;1,0;column;1,0;True;True;False;1,80000019073;False;0,526999950409
YWH1992w;game;2017-01-27-11-07-52;5,0;17,0;1000;3,0;1,0;0,0;2,0;row;1,0;True;True;True;1,73399996758;True;0,830000162125
YWH1992w;game;2017-01-27-11-07-52;5,0;18,0;1000;3,0;2,0;1,0;0,0;row;1,0;False;False;True;2,66399979591;False;1,36599993706
YWH1992w;game;2017-01-27-11-07-52;5,0;19,0;1000;2,0;3,0;1,0;0,0;column;0,0;False;True;False;1,70000004768;True;0,871000051498
YWH1992w;game;2017-01-27-11-07-52;5,0;20,0;1000;2,0;3,0;1,0;0,0;column;1,0;True;True;False;1,26700019836;False;0,56500005722
YWH1992w;game;2017-01-27-11-07-52;5,0;21,0;1000;1,0;2,0;0,0;3,0;row;0,0;True;True;False;1,79999995232;False;0,936000108719
YWH1992w;game;2017-01-27-11-07-52;5,0;22,0;1000;3,0;2,0;1,0;0,0;column;0,0;True;False;False;2,46599984169;False;1,42300009727
YWH1992w;game;2017-01-27-11-07-52;5,0;23,0;1000;2,0;3,0;1,0;0,0;row;1,0;True;True;True;1,73100018501;True;0,992999792099
YWH1992w;game;2017-01-27-11-07-52;5,0;24,0;1000;2,0;1,0;0,0;3,0;column;1,0;True;True;False;2,0;False;1,40400004387
YWH1992w;game;2017-01-27-11-07-52;5,0;25,0;1000;1,0;3,0;0,0;2,0;row;0,0;True;False;False;2,13300013542;False;1,12900018692
YWH1992w;game;2017-01-27-11-07-52;5,0;26,0;1000;2,0;1,0;3,0;0,0;row;0,0;False;False;False;1,632999897;True;1,09799981117
YWH1992w;game;2017-01-27-11-07-52;5,0;27,0;1000;3,0;2,0;1,0;0,0;column;0,0;False;True;False;2,86599993706;True;0,863000154495
YWH1992w;game;2017-01-27-11-07-52;5,0;28,0;1000;3,0;2,0;1,0;0,0;column;1,0;False;True;False;2,43299984932;True;1,0680000782
YWH1992w;game;2017-01-27-11-07-52;5,0;29,0;1000;2,0;1,0;0,0;3,0;row;1,0;True;True;False;2,76699995995;False;1,15700006485
YWH1992w;game;2017-01-27-11-07-52;5,0;30,0;1000;2,0;3,0;0,0;1,0;column;0,0;False;False;True;2,09899997711;False;0,825999975204
YWH1992w;game;2017-01-27-11-07-52;5,0;31,0;1000;2,0;3,0;0,0;1,0;column;1,0;True;False;False;1,5;False;1,03500008583
YWH1992w;game;2017-01-27-11-07-52;5,0;32,0;1000;0,0;3,0;1,0;2,0;column;1,0;False;False;False;1,76399993896;True;1,32399988174
YWH1992w;game;2017-01-27-11-07-52;5,0;33,0;1000;1,0;0,0;2,0;3,0;column;0,0;True;False;False;2,367000103;False;0,971999883652
YWH1992w;game;2017-01-27-11-07-52;5,0;34,0;1000;3,0;2,0;0,0;1,0;row;1,0;False;True;True;2,66600012779;False;0,798000097275
YWH1992w;game;2017-01-27-11-07-52;5,0;35,0;1000;3,0;0,0;2,0;1,0;column;0,0;True;False;True;2,99900007248;True;0,56500005722
YWH1992w;game;2017-01-27-11-07-52;5,0;36,0;1000;1,0;2,0;3,0;0,0;row;1,0;True;False;True;1,29999995232;True;0,973000049591
YWH1992w;game;2017-01-27-11-07-52;5,0;37,0;1000;1,0;3,0;2,0;0,0;row;0,0;False;False;False;2,76600003242;True;1,09899997711
YWH1992w;game;2017-01-27-11-07-52;5,0;38,0;1000;3,0;1,0;2,0;0,0;column;0,0;False;False;False;3,4960000515;True;1,19299983978
YWH1992w;game;2017-01-27-11-07-52;5,0;39,0;1000;3,0;1,0;2,0;0,0;column;1,0;True;False;False;2,59999990463;False;1,23399996758
YWH1992w;game;2017-01-27-11-07-52;5,0;40,0;1000;3,0;2,0;0,0;1,0;row;0,0;False;False;False;2,29999995232;True;0,960999965668
YWH1992w;game;2017-01-27-11-07-52;5,0;41,0;1000;2,0;1,0;3,0;0,0;column;0,0;True;True;False;2,49799990654;False;0,732999801636
YWH1992w;game;2017-01-27-11-07-52;5,0;42,0;1000;2,0;0,0;1,0;3,0;column;1,0;True;False;False;1,69999980927;False;1,09799981117
YWH1992w;game;2017-01-27-11-07-52;5,0;43,0;1000;0,0;2,0;1,0;3,0;column;1,0;True;False;False;1,69899988174;False;1,26499986649
YWH1992w;game;2017-01-27-11-07-52;5,0;44,0;1000;1,0;2,0;3,0;0,0;column;1,0;True;True;False;1,42999982834;False;1,13499999046
YWH1992w;game;2017-01-27-11-07-52;5,0;45,0;1000;2,0;1,0;0,0;3,0;row;0,0;False;False;False;2,79800009727;True;0,5640001297
YWH1992w;game;2017-01-27-11-07-52;5,0;46,0;1000;3,0;0,0;2,0;1,0;column;1,0;False;False;False;1,80100011826;True;1,2349998951
YWH1992w;game;2017-01-27-11-07-52;5,0;47,0;1000;1,0;3,0;0,0;2,0;column;1,0;False;False;False;1,632999897;True;0,759000062943
YWH1992w;game;2017-01-27-11-07-52;5,0;48,0;1000;3,0;1,0;0,0;2,0;row;0,0;True;False;False;1,2990000248;False;1,32800006866
YWH1992w;game;2017-01-27-11-07-52;6,0;1,0;-100;0,0;3,0;1,0;2,0;column;0,0;False;True;False;1,75;True;0,65900015831
YWH1992w;game;2017-01-27-11-07-52;6,0;2,0;-100;2,0;0,0;1,0;3,0;column;0,0;True;False;False;1,31399989128;False;1,45700001717
YWH1992w;game;2017-01-27-11-07-52;6,0;3,0;-100;2,0;0,0;3,0;1,0;row;0,0;True;True;False;1,51499986649;False;0,696000099182
YWH1992w;game;2017-01-27-11-07-52;6,0;4,0;-100;1,0;3,0;0,0;2,0;column;0,0;False;False;False;2,11599993706;True;0,707999944687
YWH1992w;game;2017-01-27-11-07-52;6,0;5,0;-100;2,0;3,0;1,0;0,0;column;1,0;True;False;True;2,882999897;True;1,02299976349
YWH1992w;game;2017-01-27-11-07-52;6,0;6,0;-100;1,0;0,0;2,0;3,0;column;0,0;False;False;False;1,64999985695;True;1,16100001335
YWH1992w;game;2017-01-27-11-07-52;6,0;7,0;-100;2,0;1,0;0,0;3,0;column;1,0;True;True;False;1,61699986458;False;1,39400005341
YWH1992w;game;2017-01-27-11-07-52;6,0;8,0;-100;1,0;0,0;2,0;3,0;column;0,0;True;True;True;2,21300005913;True;1,33200001717
YWH1992w;game;2017-01-27-11-07-52;6,0;9,0;-100;3,0;2,0;0,0;1,0;row;0,0;False;False;False;1,88100004196;True;1,32299995422
YWH1992w;game;2017-01-27-11-07-52;6,0;10,0;-100;2,0;1,0;0,0;3,0;column;1,0;False;False;False;1,61599993706;True;1,42700004578
YWH1992w;game;2017-01-27-11-07-52;6,0;11,0;-100;0,0;1,0;2,0;3,0;row;0,0;True;False;True;1,71700000763;True;0,736999988556
YWH1992w;game;2017-01-27-11-07-52;6,0;12,0;-100;3,0;1,0;0,0;2,0;column;1,0;True;False;False;2,48399996758;False;0,835000038147
YWH1992w;game;2017-01-27-11-07-52;6,0;13,0;-100;0,0;1,0;2,0;3,0;row;1,0;False;False;False;2,64899992943;True;1,52900004387
YWH1992w;game;2017-01-27-11-07-52;6,0;14,0;-100;1,0;0,0;2,0;3,0;column;1,0;False;True;False;3,91700005531;True;0,702999830246
YWH1992w;game;2017-01-27-11-07-52;6,0;15,0;-100;2,0;3,0;1,0;0,0;row;1,0;False;True;False;2,38300013542;True;1,42499995232
YWH1992w;game;2017-01-27-11-07-52;6,0;16,0;-100;3,0;2,0;0,0;1,0;column;0,0;False;False;False;2,31500005722;True;1,35800004005
YWH1992w;game;2017-01-27-11-07-52;6,0;17,0;-100;1,0;3,0;0,0;2,0;row;1,0;True;False;False;5,38400006294;False;0,901999950409
YWH1992w;game;2017-01-27-11-07-52;6,0;18,0;-100;2,0;3,0;0,0;1,0;column;0,0;False;False;False;1,38300013542;True;0,59500002861
YWH1992w;game;2017-01-27-11-07-52;6,0;19,0;-100;2,0;1,0;0,0;3,0;row;1,0;True;True;True;1,65000009537;True;1,43400001526
YWH1992w;game;2017-01-27-11-07-52;6,0;20,0;-100;3,0;1,0;0,0;2,0;column;1,0;False;False;False;3,31599998474;True;1,16599988937
YWH1992w;game;2017-01-27-11-07-52;6,0;21,0;-100;3,0;2,0;0,0;1,0;column;0,0;True;True;True;1,78299999237;True;1,19199991226
YWH1992w;game;2017-01-27-11-07-52;6,0;22,0;-100;0,0;2,0;3,0;1,0;row;1,0;False;True;False;3,8180000782;True;0,835000038147
YWH1992w;game;2017-01-27-11-07-52;6,0;23,0;-100;2,0;3,0;0,0;1,0;row;0,0;False;True;False;2,48400020599;True;0,662000179291
YWH1992w;game;2017-01-27-11-07-52;6,0;24,0;-100;0,0;2,0;3,0;1,0;row;0,0;True;True;True;2,21700000763;True;1,23100018501
YWH1992w;game;2017-01-27-11-07-52;6,0;25,0;-100;0,0;2,0;1,0;3,0;column;0,0;False;True;False;3,44899988174;True;0,925999879837
YWH1992w;game;2017-01-27-11-07-52;6,0;26,0;-100;2,0;0,0;3,0;1,0;column;0,0;False;True;False;1,18200016022;True;0,926000118256
YWH1992w;game;2017-01-27-11-07-52;6,0;27,0;-100;0,0;1,0;2,0;3,0;column;0,0;False;True;False;2,61599993706;True;1,09599995613
YWH1992w;game;2017-01-27-11-07-52;6,0;28,0;-100;2,0;3,0;1,0;0,0;row;1,0;True;True;True;2,617000103;True;0,763999938965
YWH1992w;game;2017-01-27-11-07-52;6,0;29,0;-100;2,0;1,0;3,0;0,0;column;1,0;False;False;False;2,38400006294;True;0,738000154495
YWH1992w;game;2017-01-27-11-07-52;6,0;30,0;-100;0,0;2,0;3,0;1,0;row;0,0;False;False;False;1,4509999752;True;1,22399997711
YWH1992w;game;2017-01-27-11-07-52;6,0;31,0;-100;2,0;3,0;0,0;1,0;column;0,0;True;True;True;1,68300008774;True;0,596999883652
YWH1992w;game;2017-01-27-11-07-52;6,0;32,0;-100;3,0;1,0;2,0;0,0;row;0,0;False;True;False;2,95000004768;True;0,697000026703
YWH1992w;game;2017-01-27-11-07-52;6,0;33,0;-100;3,0;0,0;2,0;1,0;row;1,0;False;False;False;1,91400003433;True;1,47200012207
YWH1992w;game;2017-01-27-11-07-52;6,0;34,0;-100;1,0;2,0;0,0;3,0;column;1,0;False;True;False;2,5490000248;True;0,630000114441
YWH1992w;game;2017-01-27-11-07-52;6,0;35,0;-100;1,0;2,0;3,0;0,0;row;0,0;True;True;True;2,74800014496;True;0,891999959946
YWH1992w;game;2017-01-27-11-07-52;6,0;36,0;-100;2,0;3,0;0,0;1,0;column;1,0;False;True;False;1,44899988174;True;0,563000202179
YWH1992w;game;2017-01-27-11-07-52;6,0;37,0;-100;0,0;3,0;2,0;1,0;row;0,0;True;False;False;2,28299999237;False;1,10299992561
YWH1992w;game;2017-01-27-11-07-52;6,0;38,0;-100;0,0;1,0;3,0;2,0;column;1,0;False;True;False;1,54999995232;True;1,49500012398
YWH1992w;game;2017-01-27-11-07-52;6,0;39,0;-100;0,0;3,0;1,0;2,0;row;1,0;True;True;True;1,84899997711;True;1,25800013542
YWH1992w;game;2017-01-27-11-07-52;6,0;40,0;-100;0,0;3,0;2,0;1,0;column;1,0;False;True;False;2,41700005531;True;1,19400000572
YWH1992w;game;2017-01-27-11-07-52;6,0;41,0;-100;3,0;2,0;1,0;0,0;row;1,0;True;True;True;1,6819999218;True;0,56500005722
YWH1992w;game;2017-01-27-11-07-52;6,0;42,0;-100;2,0;0,0;1,0;3,0;column;0,0;False;True;True;2,91499996185;False;1,5
YWH1992w;game;2017-01-27-11-07-52;6,0;43,0;-100;1,0;2,0;3,0;0,0;column;1,0;True;True;True;1,78400015831;True;0,839000225067
YWH1992w;game;2017-01-27-11-07-52;6,0;44,0;-100;1,0;3,0;2,0;0,0;row;0,0;True;False;True;2,04999995232;True;0,958999872208
YWH1992w;game;2017-01-27-11-07-52;6,0;45,0;-100;0,0;2,0;3,0;1,0;row;1,0;True;False;True;2,75;True;0,733000040054
YWH1992w;game;2017-01-27-11-07-52;6,0;46,0;-100;1,0;2,0;3,0;0,0;column;0,0;False;True;False;1,11600017548;True;1,29999995232
YWH1992w;game;2017-01-27-11-07-52;6,0;47,0;-100;3,0;2,0;0,0;1,0;row;1,0;True;False;True;2,14999985695;True;0,630000114441
YWH1992w;game;2017-01-27-11-07-52;6,0;48,0;-100;2,0;0,0;1,0;3,0;column;1,0;False;True;False;1,78299999237;True;0,863999843597
YWH1992w;game;2017-01-27-11-07-52;7,0;1,0;-100;3,0;0,0;2,0;1,0;column;0,0;True;False;False;1,25;False;0,539000034332
YWH1992w;game;2017-01-27-11-07-52;7,0;2,0;-100;3,0;0,0;2,0;1,0;row;1,0;True;True;True;1,55000019073;True;1,30599999428
YWH1992w;game;2017-01-27-11-07-52;7,0;3,0;-100;3,0;2,0;1,0;0,0;column;0,0;False;False;True;1,882999897;False;1,09299993515
YWH1992w;game;2017-01-27-11-07-52;7,0;4,0;-100;1,0;3,0;0,0;2,0;row;0,0;True;True;True;2,58300018311;True;1,49699997902
YWH1992w;game;2017-01-27-11-07-52;7,0;5,0;-100;1,0;0,0;2,0;3,0;column;1,0;True;True;False;1,382999897;False;1,36500000954
YWH1992w;game;2017-01-27-11-07-52;7,0;6,0;-100;1,0;2,0;0,0;3,0;column;0,0;True;True;True;1,41700005531;True;0,598000049591
YWH1992w;game;2017-01-27-11-07-52;7,0;7,0;-100;3,0;2,0;1,0;0,0;row;0,0;False;True;False;1,18200016022;True;0,694000005722
YWH1992w;game;2017-01-27-11-07-52;7,0;8,0;-100;2,0;3,0;1,0;0,0;row;0,0;True;True;True;1,54600000381;True;1,46099996567
YWH1992w;game;2017-01-27-11-07-52;7,0;9,0;-100;2,0;1,0;3,0;0,0;column;0,0;True;True;False;2,51600003242;False;0,93499994278
YWH1992w;game;2017-01-27-11-07-52;7,0;10,0;-100;3,0;1,0;0,0;2,0;row;1,0;True;False;True;2,51700019836;True;1,25800013542
YWH1992w;game;2017-01-27-11-07-52;7,0;11,0;-100;3,0;2,0;1,0;0,0;row;0,0;True;True;False;2,34999990463;False;0,857999801636
YWH1992w;game;2017-01-27-11-07-52;7,0;12,0;-100;1,0;2,0;3,0;0,0;row;0,0;False;True;False;1,51800012589;True;0,703999996185
YWH1992w;game;2017-01-27-11-07-52;7,0;13,0;-100;0,0;2,0;1,0;3,0;column;1,0;False;True;False;2,21700000763;True;0,807000160217
YWH1992w;game;2017-01-27-11-07-52;7,0;14,0;-100;0,0;3,0;2,0;1,0;row;1,0;True;False;False;2,34999990463;False;1,49300003052
YWH1992w;game;2017-01-27-11-07-52;7,0;15,0;-100;1,0;3,0;2,0;0,0;column;1,0;True;False;True;1,5490000248;True;0,865000009537
YWH1992w;game;2017-01-27-11-07-52;7,0;16,0;-100;3,0;0,0;1,0;2,0;row;1,0;True;True;True;1,9509999752;True;0,871999979019
YWH1992w;game;2017-01-27-11-07-52;7,0;17,0;-100;2,0;1,0;0,0;3,0;row;0,0;True;False;True;2,28299999237;True;1,45899987221
YWH1992w;game;2017-01-27-11-07-52;7,0;18,0;-100;3,0;1,0;2,0;0,0;column;0,0;True;False;False;1,25;False;1,29999995232
YWH1992w;game;2017-01-27-11-07-52;7,0;19,0;-100;2,0;0,0;1,0;3,0;column;1,0;True;False;True;1,85000014305;True;1,43700003624
YWH1992w;game;2017-01-27-11-07-52;7,0;20,0;-100;1,0;2,0;0,0;3,0;row;0,0;False;False;True;1,71700000763;False;0,926000118256
YWH1992w;game;2017-01-27-11-07-52;7,0;21,0;-100;3,0;2,0;1,0;0,0;row;1,0;False;True;False;2,34800004959;True;1,32299995422
YWH1992w;game;2017-01-27-11-07-52;7,0;22,0;-100;0,0;1,0;3,0;2,0;column;0,0;False;False;False;2,28199982643;True;1,23200011253
YWH1992w;game;2017-01-27-11-07-52;7,0;23,0;-100;3,0;0,0;2,0;1,0;row;0,0;True;False;False;2,05099987984;False;0,664000034332
YWH1992w;game;2017-01-27-11-07-52;7,0;24,0;-100;0,0;3,0;1,0;2,0;column;0,0;True;False;False;2,65000009537;False;1,1970000267
YWH1992w;game;2017-01-27-11-07-52;7,0;25,0;-100;2,0;0,0;1,0;3,0;row;0,0;False;True;False;3,71300005913;True;0,963999986649
YWH1992w;game;2017-01-27-11-07-52;7,0;26,0;-100;1,0;2,0;3,0;0,0;row;1,0;True;False;True;1,85099983215;True;0,634000062943
YWH1992w;game;2017-01-27-11-07-52;7,0;27,0;-100;0,0;3,0;1,0;2,0;row;0,0;True;True;True;1,98300004005;True;1,02800011635
YWH1992w;game;2017-01-27-11-07-52;7,0;28,0;-100;3,0;0,0;2,0;1,0;row;0,0;False;True;False;2,38400006294;True;1,39399981499
YWH1992w;game;2017-01-27-11-07-52;7,0;29,0;-100;0,0;1,0;3,0;2,0;row;1,0;True;True;True;4,31599998474;True;0,658999919891
YWH1992w;game;2017-01-27-11-07-52;7,0;30,0;-100;2,0;0,0;1,0;3,0;row;1,0;True;False;True;2,38099980354;True;0,669000148773
YWH1992w;game;2017-01-27-11-07-52;7,0;31,0;-100;3,0;1,0;2,0;0,0;row;1,0;False;True;True;2,1130001545;False;0,772000074387
YWH1992w;game;2017-01-27-11-07-52;7,0;32,0;-100;0,0;2,0;1,0;3,0;column;1,0;True;False;False;2,41499996185;False;0,59500002861
YWH1992w;game;2017-01-27-11-07-52;7,0;33,0;-100;2,0;3,0;0,0;1,0;column;1,0;True;True;True;1,68400001526;True;1,16100001335
YWH1992w;game;2017-01-27-11-07-52;7,0;34,0;-100;0,0;1,0;2,0;3,0;row;1,0;True;False;True;1,71700000763;True;1,46500015259
YWH1992w;game;2017-01-27-11-07-52;7,0;35,0;-100;1,0;0,0;2,0;3,0;row;1,0;False;True;False;1,44899988174;True;1,39700007439
YWH1992w;game;2017-01-27-11-07-52;7,0;36,0;-100;0,0;1,0;2,0;3,0;column;1,0;True;True;True;1,41600012779;True;0,700999975204
YWH1992w;game;2017-01-27-11-07-52;7,0;37,0;-100;2,0;3,0;1,0;0,0;column;0,0;False;False;True;3,05100011826;False;0,730000019073
YWH1992w;game;2017-01-27-11-07-52;7,0;38,0;-100;0,0;1,0;2,0;3,0;row;0,0;False;True;False;3,11699986458;True;0,631000041962
YWH1992w;game;2017-01-27-11-07-52;7,0;39,0;-100;0,0;2,0;3,0;1,0;column;1,0;True;False;True;2,51000022888;True;0,766999959946
YWH1992w;game;2017-01-27-11-07-52;7,0;40,0;-100;2,0;0,0;1,0;3,0;row;1,0;False;True;False;1,18200016022;True;1,13000011444
YWH1992w;game;2017-01-27-11-07-52;7,0;41,0;-100;0,0;2,0;3,0;1,0;column;1,0;False;False;False;1,41699981689;True;1,39400005341
YWH1992w;game;2017-01-27-11-07-52;7,0;42,0;-100;2,0;1,0;3,0;0,0;row;1,0;False;False;True;2,382999897;False;1,20199990273
YWH1992w;game;2017-01-27-11-07-52;7,0;43,0;-100;1,0;0,0;3,0;2,0;row;1,0;True;True;True;2,35000014305;True;0,56200003624
YWH1992w;game;2017-01-27-11-07-52;7,0;44,0;-100;1,0;3,0;2,0;0,0;column;0,0;True;True;True;3,11500000954;True;0,692000150681
YWH1992w;game;2017-01-27-11-07-52;7,0;45,0;-100;3,0;1,0;2,0;0,0;column;0,0;False;True;False;1,81699991226;True;1,08699989319
YWH1992w;game;2017-01-27-11-07-52;7,0;46,0;-100;2,0;1,0;3,0;0,0;row;0,0;True;True;False;2,88400006294;False;0,793999910355
YWH1992w;game;2017-01-27-11-07-52;7,0;47,0;-100;3,0;1,0;2,0;0,0;column;1,0;True;False;True;2,28500008583;True;1,23300004005
YWH1992w;game;2017-01-27-11-07-52;7,0;48,0;-100;3,0;2,0;0,0;1,0;row;1,0;False;False;False;1,94799995422;True;1,09899997711
YWH1992w;game;2017-01-27-11-07-52;8,0;1,0;1000;3,0;0,0;1,0;2,0;column;0,0;False;False;False;1,132999897;True;1,32000017166
YWH1992w;game;2017-01-27-11-07-52;8,0;2,0;1000;2,0;0,0;3,0;1,0;row;0,0;False;True;False;1,43499994278;True;1,36899995804
YWH1992w;game;2017-01-27-11-07-52;8,0;3,0;1000;0,0;2,0;3,0;1,0;column;0,0;False;True;False;1,33399987221;True;0,790999889374
YWH1992w;game;2017-01-27-11-07-52;8,0;4,0;1000;1,0;3,0;2,0;0,0;column;0,0;False;True;False;1,132999897;True;1,23299980164
YWH1992w;game;2017-01-27-11-07-52;8,0;5,0;1000;3,0;2,0;1,0;0,0;row;0,0;False;False;False;2,73500013351;True;1,43000006676
YWH1992w;game;2017-01-27-11-07-52;8,0;6,0;1000;2,0;0,0;3,0;1,0;column;0,0;False;False;False;1,73300004005;True;0,671999931335
YWH1992w;game;2017-01-27-11-07-52;8,0;7,0;1000;0,0;1,0;2,0;3,0;column;1,0;True;True;True;1,73300004005;True;1,35899996758
YWH1992w;game;2017-01-27-11-07-52;8,0;8,0;1000;3,0;1,0;2,0;0,0;column;0,0;True;True;True;4,10099983215;True;1,22499990463
YWH1992w;game;2017-01-27-11-07-52;8,0;9,0;1000;2,0;1,0;0,0;3,0;column;0,0;False;True;False;1,69799995422;True;1,15899991989
YWH1992w;game;2017-01-27-11-07-52;8,0;10,0;1000;1,0;0,0;3,0;2,0;row;1,0;False;False;False;1,86699986458;True;0,59500002861
YWH1992w;game;2017-01-27-11-07-52;8,0;11,0;1000;0,0;1,0;3,0;2,0;row;0,0;False;False;False;1,16699981689;True;1,29600000381
YWH1992w;game;2017-01-27-11-07-52;8,0;12,0;1000;0,0;3,0;1,0;2,0;column;1,0;True;True;True;1,33200001717;True;0,561000108719
YWH1992w;game;2017-01-27-11-07-52;8,0;13,0;1000;3,0;0,0;2,0;1,0;row;0,0;True;True;False;2,93099999428;False;0,995000123978
YWH1992w;game;2017-01-27-11-07-52;8,0;14,0;1000;2,0;3,0;0,0;1,0;row;0,0;True;True;False;1,00099992752;False;0,665999889374
YWH1992w;game;2017-01-27-11-07-52;8,0;15,0;1000;3,0;2,0;0,0;1,0;row;1,0;True;False;True;1,83299994469;True;1,06500005722
YWH1992w;game;2017-01-27-11-07-52;8,0;16,0;1000;2,0;3,0;1,0;0,0;column;1,0;False;True;False;1,76699995995;True;1,23799991608
YWH1992w;game;2017-01-27-11-07-52;8,0;17,0;1000;3,0;2,0;1,0;0,0;column;1,0;True;False;False;1,19999980927;False;1,49500012398
YWH1992w;game;2017-01-27-11-07-52;8,0;18,0;1000;1,0;3,0;2,0;0,0;row;1,0;True;True;True;1,5;True;1,22800016403
YWH1992w;game;2017-01-27-11-07-52;8,0;19,0;1000;1,0;0,0;3,0;2,0;column;0,0;True;False;False;2,60000014305;False;0,790999889374
YWH1992w;game;2017-01-27-11-07-52;8,0;20,0;1000;2,0;1,0;0,0;3,0;column;1,0;False;True;False;3,02899980545;True;1,10500001907
YWH1992w;game;2017-01-27-11-07-52;8,0;21,0;1000;2,0;0,0;1,0;3,0;column;1,0;False;True;False;0,934000015259;True;0,865000009537
YWH1992w;game;2017-01-27-11-07-52;8,0;22,0;1000;0,0;1,0;2,0;3,0;column;0,0;False;True;False;0,96599984169;True;0,792000055313
YWH1992w;game;2017-01-27-11-07-52;8,0;23,0;1000;0,0;1,0;3,0;2,0;column;1,0;True;False;True;1,86600017548;True;0,826000213623
YWH1992w;game;2017-01-27-11-07-52;8,0;24,0;1000;3,0;1,0;2,0;0,0;row;0,0;False;False;False;2,96700000763;True;1,46900010109
YWH1992w;game;2017-01-27-11-07-52;8,0;25,0;1000;1,0;2,0;3,0;0,0;column;0,0;True;False;True;2,63300013542;True;0,628999948502
YWH1992w;game;2017-01-27-11-07-52;8,0;26,0;1000;3,0;1,0;0,0;2,0;row;0,0;False;True;False;3,10100007057;True;0,795000076294
YWH1992w;game;2017-01-27-11-07-52;8,0;27,0;1000;1,0;3,0;2,0;0,0;column;0,0;True;False;True;2,53299999237;True;0,865000009537
YWH1992w;game;2017-01-27-11-07-52;8,0;28,0;1000;1,0;2,0;0,0;3,0;column;0,0;False;True;False;1,80000019073;True;0,894999980927
YWH1992w;game;2017-01-27-11-07-52;8,0;29,0;1000;1,0;3,0;2,0;0,0;row;0,0;True;False;True;1,79999995232;True;1,16799998283
YWH1992w;game;2017-01-27-11-07-52;8,0;30,0;1000;0,0;3,0;1,0;2,0;row;1,0;True;True;False;2,16699981689;False;1,46700000763
YWH1992w;game;2017-01-27-11-07-52;8,0;31,0;1000;1,0;2,0;0,0;3,0;row;1,0;False;False;False;0,966000080109;True;0,728999853134
YWH1992w;game;2017-01-27-11-07-52;8,0;32,0;1000;2,0;0,0;3,0;1,0;column;0,0;True;True;False;2,90100002289;False;0,672999858856
YWH1992w;game;2017-01-27-11-07-52;8,0;33,0;1000;0,0;2,0;1,0;3,0;row;0,0;True;True;True;1,16600012779;True;1,16100001335
YWH1992w;game;2017-01-27-11-07-52;8,0;34,0;1000;2,0;0,0;1,0;3,0;row;0,0;False;False;False;1,30000019073;True;1,39100003242
YWH1992w;game;2017-01-27-11-07-52;8,0;35,0;1000;2,0;0,0;1,0;3,0;column;0,0;False;False;False;1,63300013542;True;0,966000080109
YWH1992w;game;2017-01-27-11-07-52;8,0;36,0;1000;3,0;2,0;0,0;1,0;column;1,0;True;False;True;1,90000009537;True;0,762000083923
YWH1992w;game;2017-01-27-11-07-52;8,0;37,0;1000;1,0;3,0;2,0;0,0;column;1,0;False;True;False;1,23399996758;True;0,72400021553
YWH1992w;game;2017-01-27-11-07-52;8,0;38,0;1000;0,0;2,0;1,0;3,0;row;1,0;False;True;False;1,70000004768;True;1,46800017357
YWH1992w;game;2017-01-27-11-07-52;8,0;39,0;1000;3,0;2,0;1,0;0,0;row;1,0;True;True;True;1,83299994469;True;1,03600001335
YWH1992w;game;2017-01-27-11-07-52;8,0;40,0;1000;0,0;1,0;2,0;3,0;column;0,0;True;True;True;2,66599988937;True;1,23900008202
YWH1992w;game;2017-01-27-11-07-52;8,0;41,0;1000;2,0;0,0;3,0;1,0;column;1,0;False;True;False;1,36800003052;True;0,934000015259
YWH1992w;game;2017-01-27-11-07-52;8,0;42,0;1000;2,0;0,0;3,0;1,0;row;1,0;False;False;False;2,16600012779;True;1,26399993896
YWH1992w;game;2017-01-27-11-07-52;8,0;43,0;1000;3,0;0,0;1,0;2,0;row;0,0;True;False;True;1,20000004768;True;0,963999986649
YWH1992w;game;2017-01-27-11-07-52;8,0;44,0;1000;1,0;0,0;3,0;2,0;row;1,0;True;True;True;2,53299999237;True;0,524999856949
YWH1992w;game;2017-01-27-11-07-52;8,0;45,0;1000;1,0;3,0;0,0;2,0;column;0,0;False;False;False;1,59999990463;True;1,42999982834
YWH1992w;game;2017-01-27-11-07-52;8,0;46,0;1000;2,0;0,0;3,0;1,0;column;1,0;True;True;False;1,69900012016;False;0,897000074387
YWH1992w;game;2017-01-27-11-07-52;8,0;47,0;1000;3,0;0,0;2,0;1,0;column;0,0;False;True;False;2,53200006485;True;0,762999773026
YWH1992w;game;2017-01-27-11-07-52;8,0;48,0;1000;0,0;3,0;2,0;1,0;column;0,0;True;True;False;1,03299999237;False;1,25800013542
YWH1992w;game;2017-01-27-11-07-52;9,0;1,0;100;1,0;3,0;2,0;0,0;row;1,0;False;False;False;1,367000103;True;1,04200005531
YWH1992w;game;2017-01-27-11-07-52;9,0;2,0;100;3,0;0,0;2,0;1,0;column;1,0;False;True;False;1,03299999237;True;0,958999872208
YWH1992w;game;2017-01-27-11-07-52;9,0;3,0;100;1,0;3,0;0,0;2,0;column;0,0;True;False;True;2,40000009537;True;0,927000045776
YWH1992w;game;2017-01-27-11-07-52;9,0;4,0;100;2,0;3,0;0,0;1,0;column;0,0;False;True;False;1,53299999237;True;1,0609998703
YWH1992w;game;2017-01-27-11-07-52;9,0;5,0;100;3,0;1,0;2,0;0,0;column;0,0;True;False;True;1,46700000763;True;1,40599989891
YWH1992w;game;2017-01-27-11-07-52;9,0;6,0;100;1,0;3,0;2,0;0,0;row;0,0;False;True;False;0,967000007629;True;1,0720000267
YWH1992w;game;2017-01-27-11-07-52;9,0;7,0;100;2,0;1,0;0,0;3,0;column;1,0;True;True;True;1,93300008774;True;0,765000104904
YWH1992w;game;2017-01-27-11-07-52;9,0;8,0;100;3,0;2,0;0,0;1,0;row;1,0;False;True;False;1,20199990273;True;0,626000165939
YWH1992w;game;2017-01-27-11-07-52;9,0;9,0;100;0,0;2,0;1,0;3,0;column;1,0;True;False;True;2,26699995995;True;0,761999845505
YWH1992w;game;2017-01-27-11-07-52;9,0;10,0;100;3,0;1,0;0,0;2,0;row;1,0;True;True;True;2,46700000763;True;1,46399998665
YWH1992w;game;2017-01-27-11-07-52;9,0;11,0;100;1,0;3,0;0,0;2,0;column;1,0;True;True;True;1,83299994469;True;0,55999994278
YWH1992w;game;2017-01-27-11-07-52;9,0;12,0;100;1,0;2,0;0,0;3,0;column;0,0;True;False;False;1,80000019073;False;0,598999977112
YWH1992w;game;2017-01-27-11-07-52;9,0;13,0;100;0,0;2,0;3,0;1,0;column;1,0;True;False;True;1,56599998474;True;1,19900012016
YWH1992w;game;2017-01-27-11-07-52;9,0;14,0;100;1,0;0,0;2,0;3,0;column;0,0;True;True;False;1,29999995232;False;0,799999952316
YWH1992w;game;2017-01-27-11-07-52;9,0;15,0;100;1,0;2,0;3,0;0,0;column;0,0;True;False;False;1,83200001717;False;1,09899997711
YWH1992w;game;2017-01-27-11-07-52;9,0;16,0;100;0,0;2,0;1,0;3,0;column;0,0;False;True;True;1,73300004005;False;1,36599993706
YWH1992w;game;2017-01-27-11-07-52;9,0;17,0;100;2,0;3,0;0,0;1,0;column;1,0;True;True;True;1,76699995995;True;0,930999994278
YWH1992w;game;2017-01-27-11-07-52;9,0;18,0;100;3,0;2,0;1,0;0,0;row;0,0;True;False;True;1,76600003242;True;0,700999975204
YWH1992w;game;2017-01-27-11-07-52;9,0;19,0;100;0,0;1,0;2,0;3,0;column;0,0;False;False;True;2,13100004196;False;1,45799994469
YWH1992w;game;2017-01-27-11-07-52;9,0;20,0;100;3,0;2,0;1,0;0,0;column;0,0;True;True;True;2,76699995995;True;1,53099989891
YWH1992w;game;2017-01-27-11-07-52;9,0;21,0;100;1,0;2,0;3,0;0,0;row;0,0;True;True;True;2,09899997711;True;1,16400003433
YWH1992w;game;2017-01-27-11-07-52;9,0;22,0;100;3,0;2,0;1,0;0,0;column;1,0;True;True;True;4,39999985695;True;1,20200014114
YWH1992w;game;2017-01-27-11-07-52;9,0;23,0;100;3,0;2,0;1,0;0,0;row;0,0;False;True;False;2,13400006294;True;0,59700012207
YWH1992w;game;2017-01-27-11-07-52;9,0;24,0;100;1,0;0,0;3,0;2,0;row;1,0;True;True;True;2,16499996185;True;1,02699995041
YWH1992w;game;2017-01-27-11-07-52;9,0;25,0;100;1,0;0,0;2,0;3,0;column;1,0;True;False;True;1,46700000763;True;0,608000040054
YWH1992w;game;2017-01-27-11-07-52;9,0;26,0;100;1,0;0,0;3,0;2,0;column;0,0;False;False;False;2,20000004768;True;0,933000087738
YWH1992w;game;2017-01-27-11-07-52;9,0;27,0;100;2,0;1,0;0,0;3,0;column;0,0;False;True;False;2,83200001717;True;0,565999984741
YWH1992w;game;2017-01-27-11-07-52;9,0;28,0;100;3,0;1,0;0,0;2,0;column;1,0;True;False;True;1,43299984932;True;1,06599998474
YWH1992w;game;2017-01-27-11-07-52;9,0;29,0;100;2,0;3,0;1,0;0,0;column;0,0;False;True;False;2,0;True;1,25999999046
YWH1992w;game;2017-01-27-11-07-52;9,0;30,0;100;0,0;3,0;2,0;1,0;column;1,0;False;True;False;2,23399996758;True;0,671000003815
YWH1992w;game;2017-01-27-11-07-52;9,0;31,0;100;2,0;0,0;3,0;1,0;row;1,0;False;False;False;3,367000103;True;1,06999993324
YWH1992w;game;2017-01-27-11-07-52;9,0;32,0;100;1,0;3,0;2,0;0,0;column;1,0;False;False;False;2,86599993706;True;1,03800010681
YWH1992w;game;2017-01-27-11-07-52;9,0;33,0;100;2,0;0,0;1,0;3,0;row;1,0;True;True;True;1,60000014305;True;0,793999910355
YWH1992w;game;2017-01-27-11-07-52;9,0;34,0;100;0,0;2,0;3,0;1,0;row;0,0;True;False;True;1,26600003242;True;0,56200003624
YWH1992w;game;2017-01-27-11-07-52;9,0;35,0;100;1,0;3,0;0,0;2,0;row;1,0;False;False;False;1,36699986458;True;0,763000011444
YWH1992w;game;2017-01-27-11-07-52;9,0;36,0;100;2,0;3,0;0,0;1,0;row;0,0;False;True;False;2,367000103;True;1,00199985504
YWH1992w;game;2017-01-27-11-07-52;9,0;37,0;100;1,0;3,0;2,0;0,0;row;0,0;True;True;True;1,46700000763;True;0,570000171661
YWH1992w;game;2017-01-27-11-07-52;9,0;38,0;100;3,0;0,0;2,0;1,0;column;1,0;True;True;True;3,10100007057;True;0,534999847412
YWH1992w;game;2017-01-27-11-07-52;9,0;39,0;100;0,0;3,0;2,0;1,0;column;0,0;False;True;False;1,5;True;0,96799993515
YWH1992w;game;2017-01-27-11-07-52;9,0;40,0;100;2,0;3,0;1,0;0,0;row;1,0;True;True;True;2,63300013542;True;0,938000202179
YWH1992w;game;2017-01-27-11-07-52;9,0;41,0;100;3,0;1,0;0,0;2,0;row;0,0;False;True;False;2,53299999237;True;0,790999889374
YWH1992w;game;2017-01-27-11-07-52;9,0;42,0;100;0,0;1,0;3,0;2,0;column;1,0;True;True;True;2,93400001526;True;1,46399998665
YWH1992w;game;2017-01-27-11-07-52;9,0;43,0;100;2,0;1,0;0,0;3,0;row;0,0;True;False;True;1,96700000763;True;1,32800006866
YWH1992w;game;2017-01-27-11-07-52;9,0;44,0;100;0,0;3,0;1,0;2,0;row;0,0;True;False;True;2,0640001297;True;0,699000120163
YWH1992w;game;2017-01-27-11-07-52;9,0;45,0;100;1,0;0,0;2,0;3,0;column;1,0;False;True;False;1,06699991226;True;0,56500005722
YWH1992w;game;2017-01-27-11-07-52;9,0;46,0;100;2,0;0,0;1,0;3,0;column;0,0;True;True;True;3,43300008774;True;1,05800008774
YWH1992w;game;2017-01-27-11-07-52;9,0;47,0;100;2,0;1,0;3,0;0,0;column;0,0;False;True;False;1,33299994469;True;1,32800006866
YWH1992w;game;2017-01-27-11-07-52;9,0;48,0;100;2,0;1,0;3,0;0,0;column;1,0;False;False;False;3,10100007057;True;0,558000087738
YWH1992w;game;2017-01-27-11-07-52;10,0;1,0;-100;1,0;0,0;3,0;2,0;row;1,0;False;False;False;2,382999897;True;1,24899983406
YWH1992w;game;2017-01-27-11-07-52;10,0;2,0;-100;2,0;1,0;0,0;3,0;column;0,0;True;False;True;1,98299980164;True;1,36200022697
YWH1992w;game;2017-01-27-11-07-52;10,0;3,0;-100;0,0;2,0;3,0;1,0;column;0,0;True;True;False;3,81599998474;False;0,829999923706
YWH1992w;game;2017-01-27-11-07-52;10,0;4,0;-100;2,0;0,0;3,0;1,0;column;1,0;True;True;True;2,18400001526;True;1,16199994087
YWH1992w;game;2017-01-27-11-07-52;10,0;5,0;-100;0,0;2,0;1,0;3,0;row;0,0;False;True;False;1,68399977684;True;1,29899978638
YWH1992w;game;2017-01-27-11-07-52;10,0;6,0;-100;3,0;1,0;0,0;2,0;column;0,0;False;False;False;1,21700000763;True;1,36000013351
YWH1992w;game;2017-01-27-11-07-52;10,0;7,0;-100;1,0;2,0;0,0;3,0;row;1,0;False;True;False;2,51499986649;True;0,634999990463
YWH1992w;game;2017-01-27-11-07-52;10,0;8,0;-100;1,0;3,0;2,0;0,0;row;0,0;False;False;False;2,08400011063;True;1,03800010681
YWH1992w;game;2017-01-27-11-07-52;10,0;9,0;-100;1,0;2,0;0,0;3,0;row;0,0;True;True;True;1,91700005531;True;1,22699999809
YWH1992w;game;2017-01-27-11-07-52;10,0;10,0;-100;1,0;2,0;3,0;0,0;row;1,0;False;True;False;3,31599998474;True;1,2009999752
YWH1992w;game;2017-01-27-11-07-52;10,0;11,0;-100;1,0;3,0;2,0;0,0;column;0,0;False;True;False;1,44800019264;True;0,624000072479
YWH1992w;game;2017-01-27-11-07-52;10,0;12,0;-100;0,0;3,0;1,0;2,0;row;0,0;False;False;False;1,01399993896;True;1,25999999046
YWH1992w;game;2017-01-27-11-07-52;10,0;13,0;-100;1,0;3,0;0,0;2,0;column;1,0;False;False;True;1,44800019264;False;0,50200009346
YWH1992w;game;2017-01-27-11-07-52;10,0;14,0;-100;3,0;0,0;1,0;2,0;column;1,0;False;False;False;2,75;True;0,735999822617
YWH1992w;game;2017-01-27-11-07-52;10,0;15,0;-100;3,0;0,0;1,0;2,0;row;0,0;True;True;True;2,55100011826;True;1,33299994469
YWH1992w;game;2017-01-27-11-07-52;10,0;16,0;-100;1,0;0,0;3,0;2,0;column;1,0;False;True;False;0,983000040054;True;0,858999967575
YWH1992w;game;2017-01-27-11-07-52;10,0;17,0;-100;1,0;2,0;0,0;3,0;row;1,0;True;True;True;1,81599998474;True;1,23299980164
YWH1992w;game;2017-01-27-11-07-52;10,0;18,0;-100;2,0;3,0;1,0;0,0;column;1,0;False;False;False;1,8149998188;True;1,23000001907
YWH1992w;game;2017-01-27-11-07-52;10,0;19,0;-100;0,0;1,0;2,0;3,0;column;1,0;False;False;False;1,14800000191;True;1,42600011826
YWH1992w;game;2017-01-27-11-07-52;10,0;20,0;-100;1,0;2,0;3,0;0,0;column;0,0;True;True;True;3,78299999237;True;1,46399998665
YWH1992w;game;2017-01-27-11-07-52;10,0;21,0;-100;3,0;1,0;0,0;2,0;row;1,0;False;False;False;1,3820002079;True;1,03299999237
YWH1992w;game;2017-01-27-11-07-52;10,0;22,0;-100;3,0;0,0;2,0;1,0;column;1,0;False;True;False;0,950000047684;True;0,930000066757
YWH1992w;game;2017-01-27-11-07-52;10,0;23,0;-100;1,0;0,0;3,0;2,0;row;0,0;True;True;True;1,65100002289;True;0,664999961853
YWH1992w;game;2017-01-27-11-07-52;10,0;24,0;-100;2,0;1,0;0,0;3,0;row;0,0;False;False;True;2,51600003242;False;0,55999994278
YWH1992w;game;2017-01-27-11-07-52;10,0;25,0;-100;2,0;3,0;0,0;1,0;row;0,0;True;False;True;1,64999985695;True;1,09299993515
YWH1992w;game;2017-01-27-11-07-52;10,0;26,0;-100;1,0;3,0;0,0;2,0;column;0,0;True;True;True;2,24900007248;True;0,625999927521
YWH1992w;game;2017-01-27-11-07-52;10,0;27,0;-100;3,0;2,0;1,0;0,0;column;1,0;False;False;True;1,51499986649;False;0,733999967575
YWH1992w;game;2017-01-27-11-07-52;10,0;28,0;-100;0,0;1,0;3,0;2,0;row;1,0;False;True;True;1,48200011253;False;0,700999975204
YWH1992w;game;2017-01-27-11-07-52;10,0;29,0;-100;3,0;1,0;0,0;2,0;row;0,0;True;True;True;1,58299994469;True;1,00499987602
YWH1992w;game;2017-01-27-11-07-52;10,0;30,0;-100;3,0;1,0;2,0;0,0;row;0,0;True;True;True;2,35000014305;True;0,730000019073
YWH1992w;game;2017-01-27-11-07-52;10,0;31,0;-100;1,0;3,0;0,0;2,0;column;1,0;True;False;True;1,382999897;True;1,39800000191
YWH1992w;game;2017-01-27-11-07-52;10,0;32,0;-100;3,0;0,0;1,0;2,0;column;0,0;True;False;True;2,54999995232;True;0,732000112534
YWH1992w;game;2017-01-27-11-07-52;10,0;33,0;-100;1,0;0,0;3,0;2,0;column;0,0;True;False;True;3,01699995995;True;0,726000070572
YWH1992w;game;2017-01-27-11-07-52;10,0;34,0;-100;1,0;0,0;2,0;3,0;row;0,0;False;True;False;2,08299994469;True;1,49499988556
YWH1992w;game;2017-01-27-11-07-52;10,0;35,0;-100;0,0;2,0;1,0;3,0;row;1,0;False;False;False;1,45000004768;True;1,29299998283
YWH1992w;game;2017-01-27-11-07-52;10,0;36,0;-100;0,0;2,0;1,0;3,0;row;0,0;True;True;True;3,14699983597;True;1,05599999428
YWH1992w;game;2017-01-27-11-07-52;10,0;37,0;-100;3,0;1,0;2,0;0,0;column;1,0;False;False;False;3,64899992943;True;0,990999937057
YWH1992w;game;2017-01-27-11-07-52;10,0;38,0;-100;2,0;1,0;3,0;0,0;row;0,0;False;False;False;1,84899997711;True;1,10000014305
YWH1992w;game;2017-01-27-11-07-52;10,0;39,0;-100;3,0;0,0;1,0;2,0;row;1,0;False;False;False;1,31599998474;True;1,36599993706
YWH1992w;game;2017-01-27-11-07-52;10,0;40,0;-100;2,0;1,0;3,0;0,0;column;1,0;True;True;True;2,35000014305;True;0,606999874115
YWH1992w;game;2017-01-27-11-07-52;10,0;41,0;-100;1,0;3,0;2,0;0,0;row;1,0;True;True;True;1,88300013542;True;0,657999992371
YWH1992w;game;2017-01-27-11-07-52;10,0;42,0;-100;2,0;1,0;3,0;0,0;column;0,0;False;True;False;1,04999995232;True;1,29999995232
YWH1992w;game;2017-01-27-11-07-52;10,0;43,0;-100;0,0;1,0;3,0;2,0;row;0,0;True;False;True;1,382999897;True;0,669000148773
YWH1992w;game;2017-01-27-11-07-52;10,0;44,0;-100;3,0;0,0;1,0;2,0;column;1,0;True;False;True;3,04999995232;True;0,595999956131
YWH1992w;game;2017-01-27-11-07-52;10,0;45,0;-100;0,0;2,0;1,0;3,0;row;1,0;True;True;True;2,18299984932;True;0,97000002861
YWH1992w;game;2017-01-27-11-07-52;10,0;46,0;-100;2,0;1,0;0,0;3,0;row;1,0;False;True;False;3,84899997711;True;1,12400007248
YWH1992w;game;2017-01-27-11-07-52;10,0;47,0;-100;2,0;0,0;3,0;1,0;row;1,0;True;True;True;1,41699981689;True;0,56200003624
YWH1992w;game;2017-01-27-11-07-52;10,0;48,0;-100;1,0;0,0;2,0;3,0;row;1,0;True;True;True;1,05100011826;True;1,13399982452
YWH1992w;game;2017-01-27-11-07-52;11,0;1,0;100;0,0;3,0;2,0;1,0;row;0,0;True;False;True;1,03200006485;True;0,983000040054
YWH1992w;game;2017-01-27-11-07-52;11,0;2,0;100;1,0;0,0;2,0;3,0;row;0,0;True;False;True;2,39899992943;True;1,49099993706
YWH1992w;game;2017-01-27-11-07-52;11,0;3,0;100;0,0;2,0;3,0;1,0;column;1,0;False;False;False;1,93299984932;True;1,5039999485
YWH1992w;game;2017-01-27-11-07-52;11,0;4,0;100;1,0;2,0;0,0;3,0;row;0,0;True;False;True;1,06599998474;True;1,36000013351
YWH1992w;game;2017-01-27-11-07-52;11,0;5,0;100;0,0;2,0;1,0;3,0;row;1,0;True;True;True;1,56700015068;True;0,699000120163
YWH1992w;game;2017-01-27-11-07-52;11,0;6,0;100;3,0;1,0;2,0;0,0;column;0,0;False;False;False;2,56799983978;True;1,05900001526
YWH1992w;game;2017-01-27-11-07-52;11,0;7,0;100;0,0;1,0;2,0;3,0;row;0,0;True;False;True;1,60000014305;True;0,53400015831
YWH1992w;game;2017-01-27-11-07-52;11,0;8,0;100;2,0;0,0;3,0;1,0;row;0,0;False;True;True;1,36599993706;False;0,994999885559
YWH1992w;game;2017-01-27-11-07-52;11,0;9,0;100;0,0;1,0;3,0;2,0;row;0,0;False;True;False;1,46600008011;True;1,13100004196
YWH1992w;game;2017-01-27-11-07-52;11,0;10,0;100;2,0;3,0;1,0;0,0;column;0,0;True;False;True;1,53499984741;True;0,699000120163
YWH1992w;game;2017-01-27-11-07-52;11,0;11,0;100;3,0;0,0;1,0;2,0;row;0,0;True;True;True;1,4319999218;True;1,06599998474
YWH1992w;game;2017-01-27-11-07-52;11,0;12,0;100;3,0;2,0;0,0;1,0;row;0,0;False;True;True;1,69999980927;False;0,871000051498
YWH1992w;game;2017-01-27-11-07-52;11,0;13,0;100;1,0;0,0;3,0;2,0;row;1,0;False;True;False;1,13400006294;True;0,625999927521
YWH1992w;game;2017-01-27-11-07-52;11,0;14,0;100;3,0;0,0;1,0;2,0;row;1,0;True;False;True;1,06399989128;True;0,664000034332
YWH1992w;game;2017-01-27-11-07-52;11,0;15,0;100;0,0;2,0;3,0;1,0;row;1,0;False;False;True;1,632999897;False;0,536000013351
YWH1992w;game;2017-01-27-11-07-52;11,0;16,0;100;1,0;0,0;3,0;2,0;column;1,0;False;False;False;3,33400011063;True;0,873000144958
YWH1992w;game;2017-01-27-11-07-52;11,0;17,0;100;1,0;3,0;2,0;0,0;row;1,0;True;False;True;1,70000004768;True;0,5609998703
YWH1992w;game;2017-01-27-11-07-52;11,0;18,0;100;3,0;1,0;0,0;2,0;column;0,0;True;False;True;3,0;True;0,59299993515
YWH1992w;game;2017-01-27-11-07-52;11,0;19,0;100;2,0;1,0;3,0;0,0;column;0,0;True;True;True;1,96700000763;True;0,995000123978
YWH1992w;game;2017-01-27-11-07-52;11,0;20,0;100;0,0;2,0;3,0;1,0;column;0,0;False;True;False;2,89899992943;True;1,39499998093
YWH1992w;game;2017-01-27-11-07-52;11,0;21,0;100;2,0;1,0;0,0;3,0;row;1,0;False;False;False;2,93400001526;True;1,09699988365
YWH1992w;game;2017-01-27-11-07-52;11,0;22,0;100;3,0;2,0;1,0;0,0;column;1,0;False;True;True;2,26700019836;False;0,862999916077
YWH1992w;game;2017-01-27-11-07-52;11,0;23,0;100;3,0;0,0;2,0;1,0;row;0,0;True;False;True;1,63199996948;True;1,43299984932
YWH1992w;game;2017-01-27-11-07-52;11,0;24,0;100;2,0;3,0;0,0;1,0;column;1,0;False;False;True;1,29999995232;False;1,46099996567
YWH1992w;game;2017-01-27-11-07-52;11,0;25,0;100;3,0;1,0;0,0;2,0;row;1,0;False;True;False;3,16699981689;True;1,13100004196
YWH1992w;game;2017-01-27-11-07-52;11,0;26,0;100;1,0;0,0;2,0;3,0;row;1,0;True;True;True;1,26499986649;True;0,934000015259
YWH1992w;game;2017-01-27-11-07-52;11,0;27,0;100;0,0;2,0;1,0;3,0;row;0,0;False;False;False;1,03399991989;True;1,39300012589
YWH1992w;game;2017-01-27-11-07-52;11,0;28,0;100;0,0;1,0;3,0;2,0;row;1,0;False;False;True;1,26699995995;False;0,534999847412
YWH1992w;game;2017-01-27-11-07-52;11,0;29,0;100;1,0;3,0;0,0;2,0;row;0,0;True;True;True;1,96700000763;True;1,16400003433
YWH1992w;game;2017-01-27-11-07-52;11,0;30,0;100;1,0;0,0;3,0;2,0;column;0,0;True;True;False;2,6320002079;False;1,29200005531
YWH1992w;game;2017-01-27-11-07-52;11,0;31,0;100;2,0;0,0;1,0;3,0;column;0,0;False;False;True;2,00099992752;False;0,727999925613
YWH1992w;game;2017-01-27-11-07-52;11,0;32,0;100;2,0;1,0;0,0;3,0;column;1,0;False;False;True;1,7990000248;False;0,757999897003
YWH1992w;game;2017-01-27-11-07-52;11,0;33,0;100;2,0;1,0;0,0;3,0;column;0,0;True;True;True;1,20000004768;True;1,36199998856
YWH1992w;game;2017-01-27-11-07-52;11,0;34,0;100;0,0;1,0;3,0;2,0;column;0,0;False;True;False;2,09800004959;True;1,09999990463
YWH1992w;game;2017-01-27-11-07-52;11,0;35,0;100;2,0;3,0;0,0;1,0;row;0,0;True;False;False;3,56699991226;False;1,45499992371
YWH1992w;game;2017-01-27-11-07-52;11,0;36,0;100;2,0;0,0;1,0;3,0;column;1,0;True;True;True;3,23300004005;True;1,42899990082
YWH1992w;game;2017-01-27-11-07-52;11,0;37,0;100;3,0;2,0;1,0;0,0;column;0,0;False;True;False;0,867000102997;True;0,996000051498
YWH1992w;game;2017-01-27-11-07-52;11,0;38,0;100;3,0;0,0;1,0;2,0;column;0,0;True;False;True;2,00099992752;True;0,726000070572
YWH1992w;game;2017-01-27-11-07-52;11,0;39,0;100;0,0;1,0;3,0;2,0;column;1,0;False;False;False;0,700000047684;True;0,771999835968
YWH1992w;game;2017-01-27-11-07-52;11,0;40,0;100;0,0;1,0;2,0;3,0;column;0,0;True;True;False;1,96600008011;False;0,838000059128
YWH1992w;game;2017-01-27-11-07-52;11,0;41,0;100;0,0;1,0;3,0;2,0;row;1,0;True;False;True;1,867000103;True;1,36500000954
YWH1992w;game;2017-01-27-11-07-52;11,0;42,0;100;0,0;2,0;1,0;3,0;column;0,0;True;False;False;2,60000014305;False;1,36199998856
YWH1992w;game;2017-01-27-11-07-52;11,0;43,0;100;3,0;1,0;2,0;0,0;row;1,0;False;True;False;1,46700000763;True;0,62900018692
YWH1992w;game;2017-01-27-11-07-52;11,0;44,0;100;2,0;0,0;3,0;1,0;row;0,0;True;False;True;1,93300008774;True;1,43400001526
YWH1992w;game;2017-01-27-11-07-52;11,0;45,0;100;1,0;0,0;2,0;3,0;row;1,0;False;True;False;1,132999897;True;0,891999959946
YWH1992w;game;2017-01-27-11-07-52;11,0;46,0;100;1,0;3,0;0,0;2,0;column;1,0;False;True;False;2,03299999237;True;1,16199994087
YWH1992w;game;2017-01-27-11-07-52;11,0;47,0;100;2,0;1,0;3,0;0,0;column;1,0;True;True;True;1,63400006294;True;1,16300010681
YWH1992w;game;2017-01-27-11-07-52;11,0;48,0;100;0,0;3,0;2,0;1,0;row;0,0;False;True;False;1,39800000191;True;0,739000082016
YWH1992w;game;2017-01-27-11-07-52;12,0;1,0;1000;2,0;3,0;1,0;0,0;row;0,0;True;True;True;1,26600003242;True;1,36899995804
YWH1992w;game;2017-01-27-11-07-52;12,0;2,0;1000;3,0;0,0;1,0;2,0;column;0,0;True;False;True;2,09800004959;True;0,640000104904
YWH1992w;game;2017-01-27-11-07-52;12,0;3,0;1000;0,0;2,0;3,0;1,0;row;1,0;True;True;True;1,89999985695;True;1,39299988747
YWH1992w;game;2017-01-27-11-07-52;12,0;4,0;1000;3,0;0,0;2,0;1,0;row;1,0;False;True;False;0,799000024796;True;1,42499995232
YWH1992w;game;2017-01-27-11-07-52;12,0;5,0;1000;0,0;3,0;2,0;1,0;row;1,0;False;False;False;3,0680000782;True;1,09300017357
YWH1992w;game;2017-01-27-11-07-52;12,0;6,0;1000;1,0;0,0;3,0;2,0;row;0,0;True;False;False;3,23300004005;False;0,628999948502
YWH1992w;game;2017-01-27-11-07-52;12,0;7,0;1000;3,0;2,0;0,0;1,0;column;0,0;True;False;True;2,56500005722;True;0,532999992371
YWH1992w;game;2017-01-27-11-07-52;12,0;8,0;1000;3,0;0,0;1,0;2,0;row;1,0;True;False;True;1,43400001526;True;1,4960000515
YWH1992w;game;2017-01-27-11-07-52;12,0;9,0;1000;1,0;3,0;0,0;2,0;row;1,0;False;False;False;0,799999952316;True;0,657999992371
YWH1992w;game;2017-01-27-11-07-52;12,0;10,0;1000;2,0;1,0;0,0;3,0;row;1,0;False;True;False;2,53299999237;True;1,23600006104
YWH1992w;game;2017-01-27-11-07-52;12,0;11,0;1000;2,0;3,0;1,0;0,0;row;0,0;False;False;False;1,90100002289;True;1,09299993515
YWH1992w;game;2017-01-27-11-07-52;12,0;12,0;1000;3,0;1,0;0,0;2,0;column;0,0;False;True;False;2,36599993706;True;1,49300003052
YWH1992w;game;2017-01-27-11-07-52;12,0;13,0;1000;1,0;2,0;3,0;0,0;row;0,0;True;True;True;1,73300004005;True;0,59700012207
YWH1992w;game;2017-01-27-11-07-52;12,0;14,0;1000;0,0;1,0;3,0;2,0;row;0,0;True;True;True;1,20000004768;True;1,02799987793
YWH1992w;game;2017-01-27-11-07-52;12,0;15,0;1000;1,0;0,0;2,0;3,0;column;1,0;True;True;True;1,90000009537;True;1,0600001812
YWH1992w;game;2017-01-27-11-07-52;12,0;16,0;1000;2,0;0,0;3,0;1,0;row;1,0;True;True;True;2,20000004768;True;1,32800006866
YWH1992w;game;2017-01-27-11-07-52;12,0;17,0;1000;0,0;2,0;1,0;3,0;row;0,0;False;False;False;0,868000030518;True;1,16300010681
YWH1992w;game;2017-01-27-11-07-52;12,0;18,0;1000;1,0;0,0;3,0;2,0;column;0,0;False;True;False;1,367000103;True;0,769999980927
YWH1992w;game;2017-01-27-11-07-52;12,0;19,0;1000;3,0;1,0;0,0;2,0;column;0,0;True;True;True;1,76600003242;True;1,46500015259
YWH1992w;game;2017-01-27-11-07-52;12,0;20,0;1000;0,0;1,0;2,0;3,0;column;1,0;False;True;False;1,06699991226;True;1,25800013542
YWH1992w;game;2017-01-27-11-07-52;12,0;21,0;1000;1,0;3,0;0,0;2,0;column;0,0;True;True;True;1,40000009537;True;0,694999933243
YWH1992w;game;2017-01-27-11-07-52;12,0;22,0;1000;1,0;0,0;2,0;3,0;row;1,0;True;True;True;2,20000004768;True;0,698999881744
YWH1992w;game;2017-01-27-11-07-52;12,0;23,0;1000;1,0;3,0;2,0;0,0;column;1,0;True;True;True;1,59800004959;True;0,561000108719
YWH1992w;game;2017-01-27-11-07-52;12,0;24,0;1000;1,0;2,0;0,0;3,0;column;0,0;True;True;True;2,03200006485;True;0,723999977112
YWH1992w;game;2017-01-27-11-07-52;12,0;25,0;1000;1,0;3,0;2,0;0,0;row;1,0;False;False;False;1,66600012779;True;1,46800017357
YWH1992w;game;2017-01-27-11-07-52;12,0;26,0;1000;2,0;1,0;0,0;3,0;column;0,0;True;False;True;2,46500015259;True;0,759999990463
YWH1992w;game;2017-01-27-11-07-52;12,0;27,0;1000;3,0;0,0;2,0;1,0;row;1,0;True;True;True;1,5;True;0,736000061035
YWH1992w;game;2017-01-27-11-07-52;12,0;28,0;1000;3,0;1,0;2,0;0,0;row;1,0;False;True;False;3,13199996948;True;0,895999908447
YWH1992w;game;2017-01-27-11-07-52;12,0;29,0;1000;0,0;3,0;1,0;2,0;column;0,0;False;True;True;1,69900012016;False;0,556999921799
YWH1992w;game;2017-01-27-11-07-52;12,0;30,0;1000;1,0;0,0;3,0;2,0;column;1,0;False;False;False;2,23300004005;True;0,932999849319
YWH1992w;game;2017-01-27-11-07-52;12,0;31,0;1000;2,0;1,0;3,0;0,0;row;1,0;True;True;True;3,03399991989;True;0,862999916077
YWH1992w;game;2017-01-27-11-07-52;12,0;32,0;1000;2,0;1,0;3,0;0,0;row;0,0;True;True;True;2,19899988174;True;0,96599984169
YWH1992w;game;2017-01-27-11-07-52;12,0;33,0;1000;2,0;1,0;3,0;0,0;column;1,0;True;True;True;1,49799990654;True;1,33100008965
YWH1992w;game;2017-01-27-11-07-52;12,0;34,0;1000;3,0;1,0;2,0;0,0;row;0,0;True;True;True;1,5;True;0,90099978447
YWH1992w;game;2017-01-27-11-07-52;12,0;35,0;1000;0,0;2,0;3,0;1,0;column;0,0;True;True;False;1,39899992943;False;1,26999998093
YWH1992w;game;2017-01-27-11-07-52;12,0;36,0;1000;1,0;2,0;3,0;0,0;column;1,0;False;False;True;1,29999995232;False;1,2650001049
YWH1992w;game;2017-01-27-11-07-52;12,0;37,0;1000;0,0;1,0;2,0;3,0;row;1,0;True;True;True;1,73200011253;True;1,26599979401
YWH1992w;game;2017-01-27-11-07-52;12,0;38,0;1000;0,0;3,0;1,0;2,0;row;1,0;False;False;True;1,99900007248;False;1,46500015259
YWH1992w;game;2017-01-27-11-07-52;12,0;39,0;1000;0,0;3,0;2,0;1,0;column;1,0;False;False;False;0,766999959946;True;0,756999969482
YWH1992w;game;2017-01-27-11-07-52;12,0;40,0;1000;0,0;2,0;3,0;1,0;row;0,0;True;False;False;0,832999944687;False;1,15799999237
YWH1992w;game;2017-01-27-11-07-52;12,0;41,0;1000;1,0;0,0;2,0;3,0;row;1,0;False;False;False;1,39899992943;True;1,03299999237
YWH1992w;game;2017-01-27-11-07-52;12,0;42,0;1000;1,0;0,0;2,0;3,0;column;1,0;False;False;False;2,59899997711;True;1,35700011253
YWH1992w;game;2017-01-27-11-07-52;12,0;43,0;1000;0,0;1,0;3,0;2,0;column;0,0;False;False;False;2,92900013924;True;0,93799996376
YWH1992w;game;2017-01-27-11-07-52;12,0;44,0;1000;0,0;2,0;1,0;3,0;column;1,0;False;False;False;1,59999990463;True;0,728000164032
YWH1992w;game;2017-01-27-11-07-52;12,0;45,0;1000;2,0;3,0;0,0;1,0;row;0,0;False;True;False;2,76600003242;True;1,22699999809
YWH1992w;game;2017-01-27-11-07-52;12,0;46,0;1000;2,0;0,0;1,0;3,0;row;0,0;True;True;True;3,16499996185;True;1,13700008392
YWH1992w;game;2017-01-27-11-07-52;12,0;47,0;1000;2,0;0,0;3,0;1,0;row;0,0;True;True;True;2,367000103;True;1,09299993515
YWH1992w;game;2017-01-27-11-07-52;12,0;48,0;1000;3,0;0,0;2,0;1,0;row;0,0;False;False;True;1,73399996758;False;0,559000015259
