Observer;Condition;SessionID;Block;Trial;COA;Color0;Color1;Color2;Color3;Target;Which;Match;FlipComplimentary;Response;RT;Correct;OnsetDelay
AKB1996w;game;2017-03-02-09-05-40;1,0;1,0;-100;2,0;0,0;3,0;1,0;row;1,0;True;False;True;1,382999897;True;1,05499982834
AKB1996w;game;2017-03-02-09-05-40;1,0;2,0;-100;1,0;2,0;0,0;3,0;row;0,0;False;True;False;1,15100002289;True;1,3639998436
AKB1996w;game;2017-03-02-09-05-40;1,0;3,0;-100;3,0;0,0;2,0;1,0;row;0,0;False;True;False;1,38399982452;True;0,539000034332
AKB1996w;game;2017-03-02-09-05-40;1,0;4,0;-100;0,0;3,0;1,0;2,0;row;1,0;True;False;True;1,18300008774;True;1,23099994659
AKB1996w;game;2017-03-02-09-05-40;1,0;5,0;-100;1,0;3,0;0,0;2,0;row;0,0;False;False;False;1,27999997139;True;0,994999885559
AKB1996w;game;2017-03-02-09-05-40;1,0;6,0;-100;0,0;3,0;2,0;1,0;column;0,0;False;True;False;1,01399993896;True;0,533000230789
AKB1996w;game;2017-03-02-09-05-40;1,0;7,0;-100;0,0;1,0;3,0;2,0;column;1,0;True;False;False;0,815999984741;False;1,23099994659
AKB1996w;game;2017-03-02-09-05-40;1,0;8,0;-100;0,0;1,0;2,0;3,0;column;0,0;False;False;False;1,48399996758;True;0,568000078201
AKB1996w;game;2017-03-02-09-05-40;1,0;9,0;-100;2,0;3,0;0,0;1,0;column;0,0;True;True;True;0,884000062943;True;1,132999897
AKB1996w;game;2017-03-02-09-05-40;1,0;10,0;-100;3,0;0,0;1,0;2,0;row;1,0;False;True;False;1,08400011063;True;0,931999921799
AKB1996w;game;2017-03-02-09-05-40;1,0;11,0;-100;2,0;0,0;1,0;3,0;row;0,0;True;True;True;0,983999967575;True;0,796000003815
AKB1996w;game;2017-03-02-09-05-40;1,0;12,0;-100;0,0;1,0;2,0;3,0;row;1,0;False;False;False;1,38199996948;True;1,2619998455
AKB1996w;game;2017-03-02-09-05-40;1,0;13,0;-100;1,0;3,0;2,0;0,0;row;0,0;False;False;False;1,91600012779;True;0,535000085831
AKB1996w;game;2017-03-02-09-05-40;1,0;14,0;-100;1,0;0,0;2,0;3,0;column;1,0;True;True;True;1,01399993896;True;1,02699995041
AKB1996w;game;2017-03-02-09-05-40;1,0;15,0;-100;1,0;3,0;2,0;0,0;column;0,0;False;True;False;1,08400011063;True;0,868999958038
AKB1996w;game;2017-03-02-09-05-40;1,0;16,0;-100;3,0;0,0;2,0;1,0;row;1,0;False;True;False;1,25;True;0,764000177383
AKB1996w;game;2017-03-02-09-05-40;1,0;17,0;-100;3,0;0,0;1,0;2,0;row;0,0;True;False;True;1,14900016785;True;1,19199991226
AKB1996w;game;2017-03-02-09-05-40;1,0;18,0;-100;3,0;1,0;0,0;2,0;row;1,0;True;True;True;1,25;True;1,22600007057
AKB1996w;game;2017-03-02-09-05-40;1,0;19,0;-100;2,0;3,0;0,0;1,0;row;1,0;False;True;False;1,21400022507;True;1,23300004005
AKB1996w;game;2017-03-02-09-05-40;1,0;20,0;-100;2,0;0,0;3,0;1,0;row;1,0;False;False;False;1,18300008774;True;1,33299994469
AKB1996w;game;2017-03-02-09-05-40;1,0;21,0;-100;0,0;1,0;3,0;2,0;column;0,0;True;True;True;1,19099998474;True;1,13800001144
AKB1996w;game;2017-03-02-09-05-40;1,0;22,0;-100;0,0;2,0;1,0;3,0;row;0,0;True;True;True;0,849999904633;True;1,36599993706
AKB1996w;game;2017-03-02-09-05-40;1,0;23,0;-100;1,0;3,0;0,0;2,0;column;0,0;False;False;False;1,11600017548;True;1,42299985886
AKB1996w;game;2017-03-02-09-05-40;1,0;24,0;-100;1,0;2,0;0,0;3,0;column;1,0;True;True;True;1,01700019836;True;1,27000021935
AKB1996w;game;2017-03-02-09-05-40;1,0;25,0;-100;2,0;3,0;1,0;0,0;row;1,0;True;True;True;1,08100008965;True;1,29500007629
AKB1996w;game;2017-03-02-09-05-40;1,0;26,0;-100;3,0;2,0;1,0;0,0;row;0,0;True;False;True;0,879999876022;True;1,0680000782
AKB1996w;game;2017-03-02-09-05-40;1,0;27,0;-100;1,0;3,0;2,0;0,0;column;0,0;True;False;True;0,846999883652;True;1,37400007248
AKB1996w;game;2017-03-02-09-05-40;1,0;28,0;-100;3,0;1,0;2,0;0,0;row;0,0;False;False;False;0,717000007629;True;1,3630001545
AKB1996w;game;2017-03-02-09-05-40;1,0;29,0;-100;2,0;0,0;1,0;3,0;column;1,0;False;False;False;0,983999967575;True;0,962000131607
AKB1996w;game;2017-03-02-09-05-40;1,0;30,0;-100;1,0;3,0;0,0;2,0;column;1,0;True;True;True;0,848999977112;True;0,539000034332
AKB1996w;game;2017-03-02-09-05-40;1,0;31,0;-100;2,0;3,0;1,0;0,0;row;1,0;False;True;False;1,61600017548;True;0,962000131607
AKB1996w;game;2017-03-02-09-05-40;1,0;32,0;-100;0,0;1,0;2,0;3,0;column;1,0;False;True;False;1,3820002079;True;1,39800000191
AKB1996w;game;2017-03-02-09-05-40;1,0;33,0;-100;1,0;2,0;3,0;0,0;row;1,0;False;False;False;1,24900007248;True;1,33200001717
AKB1996w;game;2017-03-02-09-05-40;1,0;34,0;-100;2,0;0,0;1,0;3,0;column;0,0;True;True;True;0,884000062943;True;0,696000099182
AKB1996w;game;2017-03-02-09-05-40;1,0;35,0;-100;0,0;2,0;1,0;3,0;row;0,0;False;True;False;1,31599998474;True;0,667999982834
AKB1996w;game;2017-03-02-09-05-40;1,0;36,0;-100;0,0;2,0;3,0;1,0;column;1,0;True;True;True;1,31500005722;True;0,936999797821
AKB1996w;game;2017-03-02-09-05-40;1,0;37,0;-100;1,0;3,0;2,0;0,0;row;1,0;False;False;False;1,34800004959;True;1,29800009727
AKB1996w;game;2017-03-02-09-05-40;1,0;38,0;-100;0,0;1,0;2,0;3,0;row;0,0;False;False;False;1,117000103;True;0,770999908447
AKB1996w;game;2017-03-02-09-05-40;1,0;39,0;-100;2,0;1,0;3,0;0,0;row;1,0;True;True;True;1,24799990654;True;1,13300013542
AKB1996w;game;2017-03-02-09-05-40;1,0;40,0;-100;2,0;1,0;0,0;3,0;column;0,0;True;False;True;1,01300001144;True;0,836000204086
AKB1996w;game;2017-03-02-09-05-40;1,0;41,0;-100;2,0;3,0;1,0;0,0;column;0,0;False;False;False;0,950000047684;True;0,936000108719
AKB1996w;game;2017-03-02-09-05-40;1,0;42,0;-100;2,0;0,0;1,0;3,0;column;1,0;True;True;True;1,15100002289;True;0,637000083923
AKB1996w;game;2017-03-02-09-05-40;1,0;43,0;-100;1,0;2,0;0,0;3,0;row;1,0;False;True;False;1,04999995232;True;1,47099995613
AKB1996w;game;2017-03-02-09-05-40;1,0;44,0;-100;3,0;1,0;2,0;0,0;column;0,0;False;True;False;1,08299994469;True;0,792000055313
AKB1996w;game;2017-03-02-09-05-40;1,0;45,0;-100;0,0;2,0;1,0;3,0;column;0,0;False;False;False;1,28200006485;True;0,963000059128
AKB1996w;game;2017-03-02-09-05-40;1,0;46,0;-100;2,0;3,0;0,0;1,0;column;0,0;False;False;False;0,915999889374;True;1,15999984741
AKB1996w;game;2017-03-02-09-05-40;1,0;47,0;-100;3,0;2,0;1,0;0,0;row;1,0;False;True;False;1,41599988937;True;1,18899989128
AKB1996w;game;2017-03-02-09-05-40;1,0;48,0;-100;3,0;2,0;0,0;1,0;column;1,0;False;True;False;1,21500015259;True;1,13100004196
AKB1996w;game;2017-03-02-09-05-40;2,0;1,0;100;1,0;3,0;2,0;0,0;row;1,0;False;True;False;1,36699986458;True;0,698000192642
AKB1996w;game;2017-03-02-09-05-40;2,0;2,0;100;0,0;2,0;3,0;1,0;column;0,0;False;False;False;0,968000173569;True;0,605000019073
AKB1996w;game;2017-03-02-09-05-40;2,0;3,0;100;2,0;3,0;1,0;0,0;row;0,0;False;False;False;1,10000014305;True;1,36999988556
AKB1996w;game;2017-03-02-09-05-40;2,0;4,0;100;3,0;1,0;0,0;2,0;column;0,0;True;False;True;1,0;True;1,13800001144
AKB1996w;game;2017-03-02-09-05-40;2,0;5,0;100;1,0;0,0;3,0;2,0;row;0,0;True;True;False;1,0;False;1,46700000763
AKB1996w;game;2017-03-02-09-05-40;2,0;6,0;100;2,0;1,0;0,0;3,0;row;1,0;False;False;False;1,46599984169;True;0,668999910355
AKB1996w;game;2017-03-02-09-05-40;2,0;7,0;100;3,0;0,0;1,0;2,0;row;0,0;False;False;False;1,13300013542;True;0,901999950409
AKB1996w;game;2017-03-02-09-05-40;2,0;8,0;100;2,0;1,0;3,0;0,0;column;0,0;False;False;False;1,19799995422;True;0,795000076294
AKB1996w;game;2017-03-02-09-05-40;2,0;9,0;100;1,0;3,0;0,0;2,0;column;1,0;False;False;False;1,33400011063;True;1,16300010681
AKB1996w;game;2017-03-02-09-05-40;2,0;10,0;100;2,0;3,0;0,0;1,0;row;0,0;False;False;False;1,16600012779;True;1,39700007439
AKB1996w;game;2017-03-02-09-05-40;2,0;11,0;100;0,0;1,0;3,0;2,0;column;0,0;True;False;True;1,0;True;0,566999912262
AKB1996w;game;2017-03-02-09-05-40;2,0;12,0;100;3,0;1,0;0,0;2,0;row;0,0;False;False;False;0,80999994278;True;0,899999856949
AKB1996w;game;2017-03-02-09-05-40;2,0;13,0;100;0,0;2,0;3,0;1,0;row;1,0;False;True;False;1,132999897;True;1,39800000191
AKB1996w;game;2017-03-02-09-05-40;2,0;14,0;100;0,0;3,0;2,0;1,0;column;1,0;True;False;True;1,83299994469;True;1,12699985504
AKB1996w;game;2017-03-02-09-05-40;2,0;15,0;100;1,0;0,0;2,0;3,0;row;0,0;False;True;False;1,26600003242;True;1,17199993134
AKB1996w;game;2017-03-02-09-05-40;2,0;16,0;100;3,0;0,0;2,0;1,0;row;1,0;True;False;True;1,53399991989;True;0,999000072479
AKB1996w;game;2017-03-02-09-05-40;2,0;17,0;100;0,0;1,0;2,0;3,0;column;1,0;False;False;False;1,73299980164;True;1,367000103
AKB1996w;game;2017-03-02-09-05-40;2,0;18,0;100;3,0;2,0;0,0;1,0;row;0,0;True;True;True;1,56599998474;True;1,43400001526
AKB1996w;game;2017-03-02-09-05-40;2,0;19,0;100;0,0;1,0;3,0;2,0;row;1,0;False;True;True;1,89999985695;False;0,861000061035
AKB1996w;game;2017-03-02-09-05-40;2,0;20,0;100;3,0;0,0;2,0;1,0;row;0,0;True;False;True;1,40000009537;True;1,2380001545
AKB1996w;game;2017-03-02-09-05-40;2,0;21,0;100;1,0;3,0;2,0;0,0;row;1,0;True;True;True;1,36699986458;True;1,06200003624
AKB1996w;game;2017-03-02-09-05-40;2,0;22,0;100;0,0;2,0;3,0;1,0;row;1,0;True;True;True;1,36699986458;True;0,802999973297
AKB1996w;game;2017-03-02-09-05-40;2,0;23,0;100;1,0;3,0;0,0;2,0;column;0,0;True;False;True;1,5;True;0,700999975204
AKB1996w;game;2017-03-02-09-05-40;2,0;24,0;100;2,0;1,0;3,0;0,0;row;1,0;True;False;True;1,16599988937;True;1,03199982643
AKB1996w;game;2017-03-02-09-05-40;2,0;25,0;100;1,0;3,0;2,0;0,0;row;0,0;False;True;False;2,46700000763;True;1,13499999046
AKB1996w;game;2017-03-02-09-05-40;2,0;26,0;100;1,0;2,0;0,0;3,0;column;1,0;True;True;True;1,13300013542;True;0,761999845505
AKB1996w;game;2017-03-02-09-05-40;2,0;27,0;100;3,0;1,0;2,0;0,0;column;0,0;True;False;True;0,867000102997;True;0,731999874115
AKB1996w;game;2017-03-02-09-05-40;2,0;28,0;100;2,0;3,0;0,0;1,0;row;1,0;False;False;False;1,29999995232;True;1,13000011444
AKB1996w;game;2017-03-02-09-05-40;2,0;29,0;100;3,0;2,0;0,0;1,0;row;1,0;False;False;False;1,5;True;0,93700003624
AKB1996w;game;2017-03-02-09-05-40;2,0;30,0;100;2,0;1,0;3,0;0,0;column;1,0;False;True;False;1,29799985886;True;0,830999851227
AKB1996w;game;2017-03-02-09-05-40;2,0;31,0;100;1,0;0,0;2,0;3,0;row;1,0;False;False;True;1,16599988937;False;1,23399996758
AKB1996w;game;2017-03-02-09-05-40;2,0;32,0;100;2,0;1,0;0,0;3,0;column;0,0;False;True;False;1,76600003242;True;1,29099988937
AKB1996w;game;2017-03-02-09-05-40;2,0;33,0;100;0,0;1,0;3,0;2,0;column;1,0;True;False;False;0,833999872208;False;0,970999956131
AKB1996w;game;2017-03-02-09-05-40;2,0;34,0;100;1,0;2,0;3,0;0,0;column;1,0;False;False;False;1,63199996948;True;1,13400006294
AKB1996w;game;2017-03-02-09-05-40;2,0;35,0;100;3,0;0,0;2,0;1,0;column;0,0;False;False;False;1,46600008011;True;0,667000055313
AKB1996w;game;2017-03-02-09-05-40;2,0;36,0;100;0,0;2,0;1,0;3,0;row;0,0;True;True;True;1,59899997711;True;1,23699998856
AKB1996w;game;2017-03-02-09-05-40;2,0;37,0;100;0,0;1,0;3,0;2,0;row;1,0;True;False;True;1,96700000763;True;1,4960000515
AKB1996w;game;2017-03-02-09-05-40;2,0;38,0;100;2,0;1,0;0,0;3,0;row;0,0;False;True;False;1,56599998474;True;0,631000041962
AKB1996w;game;2017-03-02-09-05-40;2,0;39,0;100;0,0;1,0;2,0;3,0;row;1,0;True;False;False;1,0;False;1,10399985313
AKB1996w;game;2017-03-02-09-05-40;2,0;40,0;100;2,0;0,0;1,0;3,0;column;0,0;False;False;False;1,56600022316;True;1,4279999733
AKB1996w;game;2017-03-02-09-05-40;2,0;41,0;100;2,0;1,0;0,0;3,0;row;1,0;True;True;True;1,69999980927;True;1,45999979973
AKB1996w;game;2017-03-02-09-05-40;2,0;42,0;100;3,0;2,0;0,0;1,0;column;1,0;False;False;False;1,59999990463;True;0,896999835968
AKB1996w;game;2017-03-02-09-05-40;2,0;43,0;100;1,0;2,0;0,0;3,0;row;1,0;True;False;True;1,53299999237;True;0,825999975204
AKB1996w;game;2017-03-02-09-05-40;2,0;44,0;100;3,0;1,0;0,0;2,0;row;0,0;True;False;True;1,16700005531;True;1,5
AKB1996w;game;2017-03-02-09-05-40;2,0;45,0;100;0,0;1,0;2,0;3,0;column;1,0;True;False;True;1,33299994469;True;0,799999952316
AKB1996w;game;2017-03-02-09-05-40;2,0;46,0;100;0,0;3,0;1,0;2,0;row;0,0;True;False;True;1,03299999237;True;1,17000007629
AKB1996w;game;2017-03-02-09-05-40;2,0;47,0;100;0,0;3,0;2,0;1,0;column;0,0;True;True;True;1,06599998474;True;0,970999956131
AKB1996w;game;2017-03-02-09-05-40;2,0;48,0;100;3,0;2,0;0,0;1,0;column;0,0;True;False;True;1,89999985695;True;0,805999994278
AKB1996w;game;2017-03-02-09-05-40;3,0;1,0;1000;0,0;2,0;3,0;1,0;row;0,0;False;False;False;0,866999864578;True;0,701999902725
AKB1996w;game;2017-03-02-09-05-40;3,0;2,0;1000;0,0;3,0;2,0;1,0;row;1,0;False;False;False;1,49900007248;True;1,09500002861
AKB1996w;game;2017-03-02-09-05-40;3,0;3,0;1000;3,0;1,0;2,0;0,0;row;1,0;True;True;True;1,36599993706;True;1,20000004768
AKB1996w;game;2017-03-02-09-05-40;3,0;4,0;1000;2,0;0,0;3,0;1,0;row;0,0;False;True;False;0,733000040054;True;1,23600006104
AKB1996w;game;2017-03-02-09-05-40;3,0;5,0;1000;1,0;3,0;0,0;2,0;row;1,0;True;True;True;1,0;True;0,963999986649
AKB1996w;game;2017-03-02-09-05-40;3,0;6,0;1000;0,0;1,0;2,0;3,0;column;0,0;False;False;False;0,899999856949;True;0,900000095367
AKB1996w;game;2017-03-02-09-05-40;3,0;7,0;1000;1,0;3,0;0,0;2,0;column;0,0;False;True;False;1,03399991989;True;1,49499988556
AKB1996w;game;2017-03-02-09-05-40;3,0;8,0;1000;2,0;0,0;3,0;1,0;column;1,0;False;True;False;1,36599993706;True;1,10500001907
AKB1996w;game;2017-03-02-09-05-40;3,0;9,0;1000;1,0;0,0;3,0;2,0;column;0,0;True;True;True;1,0;True;1,04099988937
AKB1996w;game;2017-03-02-09-05-40;3,0;10,0;1000;0,0;3,0;2,0;1,0;column;1,0;True;True;True;0,767000198364;True;1,36500000954
AKB1996w;game;2017-03-02-09-05-40;3,0;11,0;1000;3,0;1,0;2,0;0,0;column;1,0;False;True;False;2,43300008774;True;0,835000038147
AKB1996w;game;2017-03-02-09-05-40;3,0;12,0;1000;3,0;1,0;2,0;0,0;column;0,0;True;True;True;1,43400001526;True;0,800999879837
AKB1996w;game;2017-03-02-09-05-40;3,0;13,0;1000;2,0;1,0;0,0;3,0;column;0,0;False;True;False;0,800000190735;True;1,06200003624
AKB1996w;game;2017-03-02-09-05-40;3,0;14,0;1000;2,0;3,0;1,0;0,0;row;0,0;False;True;False;1,7990000248;True;1,43099999428
AKB1996w;game;2017-03-02-09-05-40;3,0;15,0;1000;0,0;3,0;1,0;2,0;column;1,0;True;True;True;1,73399996758;True;0,736000061035
AKB1996w;game;2017-03-02-09-05-40;3,0;16,0;1000;0,0;1,0;3,0;2,0;column;1,0;False;True;False;2,0680000782;True;0,689999818802
AKB1996w;game;2017-03-02-09-05-40;3,0;17,0;1000;2,0;1,0;3,0;0,0;row;1,0;True;False;True;1,26600003242;True;0,56299996376
AKB1996w;game;2017-03-02-09-05-40;3,0;18,0;1000;2,0;3,0;0,0;1,0;row;1,0;True;True;True;1,93300008774;True;1,25999999046
AKB1996w;game;2017-03-02-09-05-40;3,0;19,0;1000;1,0;0,0;3,0;2,0;column;1,0;True;False;True;3,83400011063;True;0,526999950409
AKB1996w;game;2017-03-02-09-05-40;3,0;20,0;1000;0,0;3,0;1,0;2,0;column;0,0;True;True;False;2,0;False;0,572000026703
AKB1996w;game;2017-03-02-09-05-40;3,0;21,0;1000;2,0;3,0;0,0;1,0;row;0,0;False;True;True;2,53399991989;False;0,962999820709
AKB1996w;game;2017-03-02-09-05-40;3,0;22,0;1000;3,0;2,0;1,0;0,0;column;0,0;True;True;True;1,53099989891;True;0,901999950409
AKB1996w;game;2017-03-02-09-05-40;3,0;23,0;1000;0,0;3,0;1,0;2,0;row;0,0;False;False;False;1,33299994469;True;0,661000013351
AKB1996w;game;2017-03-02-09-05-40;3,0;24,0;1000;3,0;2,0;1,0;0,0;column;1,0;True;True;True;1,53400015831;True;1,26699995995
AKB1996w;game;2017-03-02-09-05-40;3,0;25,0;1000;1,0;3,0;2,0;0,0;row;1,0;False;True;False;0,934000015259;True;0,569000005722
AKB1996w;game;2017-03-02-09-05-40;3,0;26,0;1000;1,0;3,0;0,0;2,0;column;0,0;True;True;True;1,06699991226;True;1,10400009155
AKB1996w;game;2017-03-02-09-05-40;3,0;27,0;1000;2,0;3,0;1,0;0,0;row;0,0;True;False;True;0,866000175476;True;0,694999933243
AKB1996w;game;2017-03-02-09-05-40;3,0;28,0;1000;3,0;0,0;1,0;2,0;row;0,0;False;True;False;1,43300008774;True;1,29299998283
AKB1996w;game;2017-03-02-09-05-40;3,0;29,0;1000;1,0;2,0;3,0;0,0;column;1,0;True;False;True;1,16699981689;True;1,03600001335
AKB1996w;game;2017-03-02-09-05-40;3,0;30,0;1000;0,0;2,0;1,0;3,0;column;0,0;False;True;False;1,40000009537;True;0,967000007629
AKB1996w;game;2017-03-02-09-05-40;3,0;31,0;1000;0,0;2,0;3,0;1,0;row;1,0;True;False;True;1,32999992371;True;1,36899995804
AKB1996w;game;2017-03-02-09-05-40;3,0;32,0;1000;2,0;0,0;3,0;1,0;row;0,0;True;False;True;1,13099980354;True;0,832000017166
AKB1996w;game;2017-03-02-09-05-40;3,0;33,0;1000;2,0;0,0;1,0;3,0;column;0,0;False;False;False;1,33399987221;True;1,46799993515
AKB1996w;game;2017-03-02-09-05-40;3,0;34,0;1000;3,0;2,0;0,0;1,0;column;1,0;False;True;False;1,13399982452;True;1,19800019264
AKB1996w;game;2017-03-02-09-05-40;3,0;35,0;1000;2,0;1,0;0,0;3,0;row;1,0;True;True;True;1,63199996948;True;0,773000001907
AKB1996w;game;2017-03-02-09-05-40;3,0;36,0;1000;3,0;0,0;1,0;2,0;column;1,0;True;False;True;1,26699995995;True;0,929999828339
AKB1996w;game;2017-03-02-09-05-40;3,0;37,0;1000;0,0;1,0;3,0;2,0;row;0,0;True;False;True;1,06599998474;True;0,834000110626
AKB1996w;game;2017-03-02-09-05-40;3,0;38,0;1000;2,0;3,0;1,0;0,0;column;0,0;False;True;False;1,33400011063;True;1,06900000572
AKB1996w;game;2017-03-02-09-05-40;3,0;39,0;1000;3,0;2,0;0,0;1,0;column;1,0;True;True;True;1,03399991989;True;0,569999933243
AKB1996w;game;2017-03-02-09-05-40;3,0;40,0;1000;3,0;2,0;0,0;1,0;row;0,0;False;True;True;4,43099999428;False;0,861000061035
AKB1996w;game;2017-03-02-09-05-40;3,0;41,0;1000;0,0;3,0;1,0;2,0;row;1,0;False;False;True;1,43400001526;False;1,42599987984
AKB1996w;game;2017-03-02-09-05-40;3,0;42,0;1000;1,0;2,0;0,0;3,0;column;1,0;False;False;False;2,16600012779;True;0,72400021553
AKB1996w;game;2017-03-02-09-05-40;3,0;43,0;1000;0,0;1,0;3,0;2,0;row;0,0;False;True;False;0,833999872208;True;1,23199987411
AKB1996w;game;2017-03-02-09-05-40;3,0;44,0;1000;3,0;1,0;0,0;2,0;row;1,0;True;False;True;1,66700005531;True;1,12800002098
AKB1996w;game;2017-03-02-09-05-40;3,0;45,0;1000;0,0;3,0;2,0;1,0;column;0,0;True;True;True;1,46600008011;True;1,13199996948
AKB1996w;game;2017-03-02-09-05-40;3,0;46,0;1000;3,0;2,0;0,0;1,0;row;1,0;True;False;True;1,33399987221;True;0,832000017166
AKB1996w;game;2017-03-02-09-05-40;3,0;47,0;1000;1,0;0,0;3,0;2,0;row;1,0;False;True;False;0,667999982834;True;0,899999856949
AKB1996w;game;2017-03-02-09-05-40;3,0;48,0;1000;0,0;1,0;3,0;2,0;column;1,0;True;False;True;0,967000007629;True;1,33699989319
AKB1996w;game;2017-03-02-09-05-40;4,0;1,0;100;2,0;0,0;3,0;1,0;row;1,0;True;False;True;1,06700015068;True;1,45499992371
AKB1996w;game;2017-03-02-09-05-40;4,0;2,0;100;3,0;0,0;2,0;1,0;row;0,0;False;False;False;0,865999937057;True;0,762000083923
AKB1996w;game;2017-03-02-09-05-40;4,0;3,0;100;1,0;2,0;3,0;0,0;row;0,0;False;True;False;0,733000040054;True;1,03500008583
AKB1996w;game;2017-03-02-09-05-40;4,0;4,0;100;1,0;2,0;0,0;3,0;column;0,0;False;True;False;1,16699981689;True;0,805999994278
AKB1996w;game;2017-03-02-09-05-40;4,0;5,0;100;0,0;1,0;3,0;2,0;row;0,0;False;True;False;1,03400015831;True;1,09200000763
AKB1996w;game;2017-03-02-09-05-40;4,0;6,0;100;2,0;3,0;1,0;0,0;column;1,0;False;True;True;1,33299994469;False;1,0
AKB1996w;game;2017-03-02-09-05-40;4,0;7,0;100;1,0;3,0;2,0;0,0;row;0,0;True;False;True;1,43300008774;True;0,99799990654
AKB1996w;game;2017-03-02-09-05-40;4,0;8,0;100;3,0;1,0;2,0;0,0;column;1,0;True;False;True;1,33299994469;True;0,638999938965
AKB1996w;game;2017-03-02-09-05-40;4,0;9,0;100;2,0;0,0;3,0;1,0;column;0,0;False;True;False;1,06700015068;True;1,29100012779
AKB1996w;game;2017-03-02-09-05-40;4,0;10,0;100;1,0;0,0;2,0;3,0;column;0,0;False;True;False;0,868000030518;True;0,898000001907
AKB1996w;game;2017-03-02-09-05-40;4,0;11,0;100;0,0;2,0;1,0;3,0;column;1,0;False;True;False;1,03299999237;True;1,20000004768
AKB1996w;game;2017-03-02-09-05-40;4,0;12,0;100;3,0;1,0;2,0;0,0;row;1,0;False;True;False;1,16699981689;True;1,40299987793
AKB1996w;game;2017-03-02-09-05-40;4,0;13,0;100;3,0;2,0;1,0;0,0;column;0,0;True;False;True;1,03299999237;True;0,797999858856
AKB1996w;game;2017-03-02-09-05-40;4,0;14,0;100;3,0;0,0;2,0;1,0;column;1,0;True;True;True;1,16700005531;True;0,967000007629
AKB1996w;game;2017-03-02-09-05-40;4,0;15,0;100;2,0;1,0;3,0;0,0;row;0,0;True;True;True;1,26399993896;True;0,796000003815
AKB1996w;game;2017-03-02-09-05-40;4,0;16,0;100;2,0;1,0;3,0;0,0;column;0,0;True;False;True;1,06299996376;True;0,924999952316
AKB1996w;game;2017-03-02-09-05-40;4,0;17,0;100;1,0;3,0;0,0;2,0;row;1,0;False;False;False;1,46399998665;True;0,56500005722
AKB1996w;game;2017-03-02-09-05-40;4,0;18,0;100;1,0;3,0;0,0;2,0;column;0,0;False;True;False;1,40000009537;True;0,602999925613
AKB1996w;game;2017-03-02-09-05-40;4,0;19,0;100;1,0;0,0;2,0;3,0;row;1,0;True;False;True;1,23299980164;True;1,50200009346
AKB1996w;game;2017-03-02-09-05-40;4,0;20,0;100;2,0;0,0;1,0;3,0;row;0,0;True;True;True;0,966999769211;True;1,35700011253
AKB1996w;game;2017-03-02-09-05-40;4,0;21,0;100;0,0;2,0;1,0;3,0;row;1,0;False;False;False;1,93400001526;True;0,971999883652
AKB1996w;game;2017-03-02-09-05-40;4,0;22,0;100;0,0;2,0;3,0;1,0;row;0,0;False;False;False;2,19900012016;True;0,536000013351
AKB1996w;game;2017-03-02-09-05-40;4,0;23,0;100;0,0;3,0;2,0;1,0;row;0,0;True;False;True;1,39999985695;True;1,36800003052
AKB1996w;game;2017-03-02-09-05-40;4,0;24,0;100;3,0;0,0;1,0;2,0;row;1,0;True;True;True;0,931999921799;True;1,10400009155
AKB1996w;game;2017-03-02-09-05-40;4,0;25,0;100;1,0;2,0;3,0;0,0;row;1,0;True;False;True;1,76699995995;True;0,5640001297
AKB1996w;game;2017-03-02-09-05-40;4,0;26,0;100;0,0;1,0;2,0;3,0;row;0,0;True;False;True;0,998999834061;True;0,524000167847
AKB1996w;game;2017-03-02-09-05-40;4,0;27,0;100;2,0;3,0;1,0;0,0;column;1,0;True;True;True;1,40000009537;True;1,00400018692
AKB1996w;game;2017-03-02-09-05-40;4,0;28,0;100;1,0;2,0;0,0;3,0;column;1,0;False;True;False;1,26499986649;True;1,26800012589
AKB1996w;game;2017-03-02-09-05-40;4,0;29,0;100;2,0;3,0;0,0;1,0;column;1,0;True;False;True;1,83100008965;True;0,901999950409
AKB1996w;game;2017-03-02-09-05-40;4,0;30,0;100;2,0;1,0;0,0;3,0;row;0,0;True;False;True;2,13300013542;True;1,43300008774
AKB1996w;game;2017-03-02-09-05-40;4,0;31,0;100;0,0;1,0;2,0;3,0;column;0,0;False;True;False;1,16599988937;True;0,570000171661
AKB1996w;game;2017-03-02-09-05-40;4,0;32,0;100;3,0;0,0;1,0;2,0;column;0,0;True;False;True;2,23099994659;True;0,891999959946
AKB1996w;game;2017-03-02-09-05-40;4,0;33,0;100;3,0;1,0;2,0;0,0;column;1,0;False;False;False;3,93200016022;True;1,33500003815
AKB1996w;game;2017-03-02-09-05-40;4,0;34,0;100;1,0;0,0;3,0;2,0;row;1,0;False;True;False;1,79799985886;True;0,667999982834
AKB1996w;game;2017-03-02-09-05-40;4,0;35,0;100;0,0;2,0;1,0;3,0;column;0,0;True;False;True;1,66599988937;True;1,00300002098
AKB1996w;game;2017-03-02-09-05-40;4,0;36,0;100;1,0;3,0;2,0;0,0;column;1,0;True;False;True;1,23300004005;True;1,26399993896
AKB1996w;game;2017-03-02-09-05-40;4,0;37,0;100;2,0;3,0;1,0;0,0;row;0,0;True;True;True;1,23300004005;True;0,600000143051
AKB1996w;game;2017-03-02-09-05-40;4,0;38,0;100;2,0;0,0;1,0;3,0;column;1,0;False;False;False;0,93499994278;True;0,631000041962
AKB1996w;game;2017-03-02-09-05-40;4,0;39,0;100;2,0;0,0;3,0;1,0;row;0,0;True;False;True;0,832000017166;True;0,828999996185
AKB1996w;game;2017-03-02-09-05-40;4,0;40,0;100;2,0;0,0;3,0;1,0;row;0,0;False;False;False;1,132999897;True;1,33000016212
AKB1996w;game;2017-03-02-09-05-40;4,0;41,0;100;0,0;3,0;1,0;2,0;row;0,0;False;False;False;0,967000007629;True;0,898000001907
AKB1996w;game;2017-03-02-09-05-40;4,0;42,0;100;0,0;3,0;1,0;2,0;row;1,0;True;False;True;1,06599998474;True;1,33400011063
AKB1996w;game;2017-03-02-09-05-40;4,0;43,0;100;3,0;1,0;2,0;0,0;row;0,0;True;True;True;1,33100008965;True;0,963999986649
AKB1996w;game;2017-03-02-09-05-40;4,0;44,0;100;3,0;2,0;0,0;1,0;column;0,0;False;True;False;0,733000040054;True;0,669000148773
AKB1996w;game;2017-03-02-09-05-40;4,0;45,0;100;3,0;2,0;1,0;0,0;row;1,0;True;True;True;1,132999897;True;1,02999997139
AKB1996w;game;2017-03-02-09-05-40;4,0;46,0;100;2,0;0,0;3,0;1,0;column;0,0;True;True;True;2,10100007057;True;1,03500008583
AKB1996w;game;2017-03-02-09-05-40;4,0;47,0;100;1,0;0,0;2,0;3,0;column;1,0;False;False;False;2,99899983406;True;0,830000162125
AKB1996w;game;2017-03-02-09-05-40;4,0;48,0;100;3,0;2,0;1,0;0,0;row;0,0;True;True;True;0,964999914169;True;1,13100004196
AKB1996w;game;2017-03-02-09-05-40;5,0;1,0;1000;2,0;1,0;0,0;3,0;column;1,0;True;True;True;1,16700005531;True;1,49099993706
AKB1996w;game;2017-03-02-09-05-40;5,0;2,0;1000;0,0;3,0;1,0;2,0;row;0,0;True;True;True;0,700000047684;True;1,4359998703
AKB1996w;game;2017-03-02-09-05-40;5,0;3,0;1000;1,0;2,0;0,0;3,0;row;0,0;False;True;False;0,899999856949;True;0,993000030518
AKB1996w;game;2017-03-02-09-05-40;5,0;4,0;1000;1,0;0,0;2,0;3,0;column;1,0;True;True;True;0,966000080109;True;1,43099999428
AKB1996w;game;2017-03-02-09-05-40;5,0;5,0;1000;0,0;1,0;3,0;2,0;column;0,0;False;True;False;0,865999937057;True;0,666999816895
AKB1996w;game;2017-03-02-09-05-40;5,0;6,0;1000;0,0;2,0;3,0;1,0;column;0,0;False;True;False;0,966999769211;True;0,866999864578
AKB1996w;game;2017-03-02-09-05-40;5,0;7,0;1000;1,0;3,0;2,0;0,0;row;0,0;True;False;True;1,06599998474;True;0,69000005722
AKB1996w;game;2017-03-02-09-05-40;5,0;8,0;1000;2,0;3,0;1,0;0,0;column;0,0;True;False;True;0,667999982834;True;1,46399998665
AKB1996w;game;2017-03-02-09-05-40;5,0;9,0;1000;1,0;2,0;3,0;0,0;row;1,0;False;True;False;0,833000183105;True;1,40300011635
AKB1996w;game;2017-03-02-09-05-40;5,0;10,0;1000;0,0;3,0;2,0;1,0;row;1,0;True;True;True;1,0;True;1,49900007248
AKB1996w;game;2017-03-02-09-05-40;5,0;11,0;1000;2,0;3,0;1,0;0,0;row;1,0;True;True;True;0,866999864578;True;0,5640001297
AKB1996w;game;2017-03-02-09-05-40;5,0;12,0;1000;1,0;3,0;2,0;0,0;column;0,0;False;False;False;1,23300004005;True;1,49500012398
AKB1996w;game;2017-03-02-09-05-40;5,0;13,0;1000;2,0;0,0;1,0;3,0;column;0,0;True;True;False;0,833000183105;False;0,731999874115
AKB1996w;game;2017-03-02-09-05-40;5,0;14,0;1000;2,0;1,0;0,0;3,0;column;1,0;False;False;False;2,16600012779;True;0,865999937057
AKB1996w;game;2017-03-02-09-05-40;5,0;15,0;1000;2,0;3,0;1,0;0,0;column;1,0;True;False;False;0,799000024796;False;1,26300001144
AKB1996w;game;2017-03-02-09-05-40;5,0;16,0;1000;3,0;2,0;1,0;0,0;row;1,0;True;False;True;1,46599984169;True;0,868999958038
AKB1996w;game;2017-03-02-09-05-40;5,0;17,0;1000;3,0;1,0;2,0;0,0;row;0,0;True;False;True;0,797999858856;True;1,13000011444
AKB1996w;game;2017-03-02-09-05-40;5,0;18,0;1000;1,0;3,0;0,0;2,0;column;1,0;False;True;False;1,7009999752;True;1,46600008011
AKB1996w;game;2017-03-02-09-05-40;5,0;19,0;1000;3,0;0,0;1,0;2,0;column;0,0;False;False;True;0,766999959946;False;1,00200009346
AKB1996w;game;2017-03-02-09-05-40;5,0;20,0;1000;3,0;0,0;2,0;1,0;row;0,0;False;False;False;1,36699986458;True;0,53400015831
AKB1996w;game;2017-03-02-09-05-40;5,0;21,0;1000;0,0;3,0;1,0;2,0;row;1,0;True;True;True;0,934000015259;True;1,22399997711
AKB1996w;game;2017-03-02-09-05-40;5,0;22,0;1000;3,0;2,0;0,0;1,0;row;0,0;True;True;True;1,20000004768;True;1,36299991608
AKB1996w;game;2017-03-02-09-05-40;5,0;23,0;1000;2,0;0,0;1,0;3,0;column;1,0;False;True;False;1,79999995232;True;0,594999790192
AKB1996w;game;2017-03-02-09-05-40;5,0;24,0;1000;3,0;0,0;1,0;2,0;row;1,0;True;True;False;0,930999994278;False;0,934000015259
AKB1996w;game;2017-03-02-09-05-40;5,0;25,0;1000;3,0;2,0;1,0;0,0;column;0,0;False;False;False;1,36500000954;True;1,32800006866
AKB1996w;game;2017-03-02-09-05-40;5,0;26,0;1000;0,0;1,0;2,0;3,0;row;0,0;True;True;True;0,764999866486;True;0,894999980927
AKB1996w;game;2017-03-02-09-05-40;5,0;27,0;1000;1,0;0,0;3,0;2,0;column;1,0;False;True;False;0,700000047684;True;0,861999988556
AKB1996w;game;2017-03-02-09-05-40;5,0;28,0;1000;0,0;2,0;1,0;3,0;column;0,0;True;True;False;0,964999914169;False;1,2650001049
AKB1996w;game;2017-03-02-09-05-40;5,0;29,0;1000;2,0;1,0;3,0;0,0;column;0,0;True;False;False;2,20000004768;False;0,766999959946
AKB1996w;game;2017-03-02-09-05-40;5,0;30,0;1000;0,0;3,0;2,0;1,0;column;0,0;False;True;False;1,7990000248;True;1,30499982834
AKB1996w;game;2017-03-02-09-05-40;5,0;31,0;1000;3,0;0,0;2,0;1,0;row;0,0;True;False;True;1,56599998474;True;1,05599999428
AKB1996w;game;2017-03-02-09-05-40;5,0;32,0;1000;0,0;2,0;1,0;3,0;row;0,0;True;True;False;1,56600022316;False;0,703999996185
AKB1996w;game;2017-03-02-09-05-40;5,0;33,0;1000;2,0;0,0;1,0;3,0;row;1,0;False;False;False;1,73300004005;True;1,0680000782
AKB1996w;game;2017-03-02-09-05-40;5,0;34,0;1000;2,0;3,0;0,0;1,0;column;0,0;True;True;False;1,29999995232;False;0,835000038147
AKB1996w;game;2017-03-02-09-05-40;5,0;35,0;1000;3,0;1,0;0,0;2,0;column;1,0;True;True;True;0,96599984169;True;0,999000072479
AKB1996w;game;2017-03-02-09-05-40;5,0;36,0;1000;3,0;0,0;2,0;1,0;row;1,0;False;False;False;1,367000103;True;0,962000131607
AKB1996w;game;2017-03-02-09-05-40;5,0;37,0;1000;3,0;1,0;0,0;2,0;column;1,0;False;False;False;2,03299999237;True;1,29499983788
AKB1996w;game;2017-03-02-09-05-40;5,0;38,0;1000;0,0;2,0;1,0;3,0;row;1,0;True;False;True;1,46399998665;True;0,737999916077
AKB1996w;game;2017-03-02-09-05-40;5,0;39,0;1000;2,0;0,0;3,0;1,0;row;1,0;False;True;False;1,46600008011;True;1,26799988747
AKB1996w;game;2017-03-02-09-05-40;5,0;40,0;1000;2,0;1,0;0,0;3,0;column;0,0;True;False;True;1,20000004768;True;0,831000089645
AKB1996w;game;2017-03-02-09-05-40;5,0;41,0;1000;1,0;2,0;0,0;3,0;column;0,0;False;False;False;1,09999990463;True;1,33100008965
AKB1996w;game;2017-03-02-09-05-40;5,0;42,0;1000;2,0;0,0;3,0;1,0;column;0,0;False;False;False;1,73300004005;True;0,998999834061
AKB1996w;game;2017-03-02-09-05-40;5,0;43,0;1000;0,0;1,0;3,0;2,0;column;0,0;True;True;True;1,59999990463;True;1,03800010681
AKB1996w;game;2017-03-02-09-05-40;5,0;44,0;1000;3,0;1,0;0,0;2,0;row;1,0;False;True;False;1,23199987411;True;0,692000150681
AKB1996w;game;2017-03-02-09-05-40;5,0;45,0;1000;1,0;0,0;3,0;2,0;column;0,0;False;True;False;1,73300004005;True;0,901000022888
AKB1996w;game;2017-03-02-09-05-40;5,0;46,0;1000;1,0;2,0;0,0;3,0;row;1,0;True;False;True;1,39999985695;True;1,33399987221
AKB1996w;game;2017-03-02-09-05-40;5,0;47,0;1000;3,0;2,0;1,0;0,0;row;0,0;True;True;True;0,998000144958;True;1,23000001907
AKB1996w;game;2017-03-02-09-05-40;5,0;48,0;1000;1,0;0,0;3,0;2,0;row;0,0;False;True;False;1,26799988747;True;1,43799996376
AKB1996w;game;2017-03-02-09-05-40;6,0;1,0;-100;1,0;0,0;3,0;2,0;column;0,0;True;False;True;1,04999995232;True;0,704999923706
AKB1996w;game;2017-03-02-09-05-40;6,0;2,0;-100;1,0;2,0;0,0;3,0;column;1,0;False;False;False;1,01399993896;True;0,927000045776
AKB1996w;game;2017-03-02-09-05-40;6,0;3,0;-100;2,0;1,0;3,0;0,0;column;1,0;True;False;True;1,11699986458;True;0,929000139236
AKB1996w;game;2017-03-02-09-05-40;6,0;4,0;-100;2,0;0,0;1,0;3,0;row;0,0;False;False;False;1,117000103;True;1,09800004959
AKB1996w;game;2017-03-02-09-05-40;6,0;5,0;-100;1,0;3,0;0,0;2,0;row;1,0;True;True;True;0,848000049591;True;1,43600010872
AKB1996w;game;2017-03-02-09-05-40;6,0;6,0;-100;2,0;1,0;3,0;0,0;row;1,0;False;False;False;1,44900012016;True;0,834000110626
AKB1996w;game;2017-03-02-09-05-40;6,0;7,0;-100;3,0;1,0;2,0;0,0;column;1,0;False;True;False;1,117000103;True;1,00099992752
AKB1996w;game;2017-03-02-09-05-40;6,0;8,0;-100;3,0;2,0;1,0;0,0;column;1,0;False;False;False;1,61500000954;True;0,568000078201
AKB1996w;game;2017-03-02-09-05-40;6,0;9,0;-100;2,0;3,0;0,0;1,0;column;1,0;False;True;False;1,31699991226;True;1,38800001144
AKB1996w;game;2017-03-02-09-05-40;6,0;10,0;-100;3,0;2,0;0,0;1,0;row;1,0;False;True;False;1,25;True;0,99799990654
AKB1996w;game;2017-03-02-09-05-40;6,0;11,0;-100;3,0;2,0;0,0;1,0;row;0,0;False;False;False;1,01699995995;True;1,15799999237
AKB1996w;game;2017-03-02-09-05-40;6,0;12,0;-100;0,0;1,0;2,0;3,0;row;1,0;True;False;True;1,0490000248;True;1,32799983025
AKB1996w;game;2017-03-02-09-05-40;6,0;13,0;-100;0,0;3,0;1,0;2,0;column;0,0;False;True;False;1,05100011826;True;0,805000066757
AKB1996w;game;2017-03-02-09-05-40;6,0;14,0;-100;3,0;1,0;2,0;0,0;row;0,0;True;False;True;0,949000120163;True;1,43699979782
AKB1996w;game;2017-03-02-09-05-40;6,0;15,0;-100;0,0;3,0;2,0;1,0;row;1,0;True;True;True;0,915000200272;True;0,632000207901
AKB1996w;game;2017-03-02-09-05-40;6,0;16,0;-100;1,0;2,0;0,0;3,0;row;0,0;True;False;True;1,31599998474;True;0,964999914169
AKB1996w;game;2017-03-02-09-05-40;6,0;17,0;-100;3,0;2,0;1,0;0,0;column;0,0;False;False;False;1,31699991226;True;1,12900018692
AKB1996w;game;2017-03-02-09-05-40;6,0;18,0;-100;2,0;3,0;1,0;0,0;row;0,0;True;True;True;1,01599979401;True;0,793999910355
AKB1996w;game;2017-03-02-09-05-40;6,0;19,0;-100;0,0;1,0;3,0;2,0;column;0,0;False;True;False;1,11699986458;True;0,931999921799
AKB1996w;game;2017-03-02-09-05-40;6,0;20,0;-100;1,0;2,0;0,0;3,0;column;0,0;True;True;True;1,21600008011;True;1,39700007439
AKB1996w;game;2017-03-02-09-05-40;6,0;21,0;-100;0,0;3,0;1,0;2,0;row;0,0;False;True;False;1,14999985695;True;1,39700007439
AKB1996w;game;2017-03-02-09-05-40;6,0;22,0;-100;1,0;3,0;0,0;2,0;column;0,0;True;True;True;1,05100011826;True;0,629999876022
AKB1996w;game;2017-03-02-09-05-40;6,0;23,0;-100;2,0;3,0;0,0;1,0;column;1,0;True;True;True;1,21700000763;True;0,894999980927
AKB1996w;game;2017-03-02-09-05-40;6,0;24,0;-100;1,0;2,0;3,0;0,0;column;1,0;False;False;False;1,34800004959;True;0,601999998093
AKB1996w;game;2017-03-02-09-05-40;6,0;25,0;-100;1,0;0,0;2,0;3,0;row;0,0;True;False;True;0,881999969482;True;0,835000038147
AKB1996w;game;2017-03-02-09-05-40;6,0;26,0;-100;1,0;0,0;2,0;3,0;column;0,0;False;True;False;0,916000127792;True;0,600000143051
AKB1996w;game;2017-03-02-09-05-40;6,0;27,0;-100;1,0;2,0;3,0;0,0;row;1,0;True;False;True;0,980000019073;True;1,49699997902
AKB1996w;game;2017-03-02-09-05-40;6,0;28,0;-100;0,0;3,0;2,0;1,0;column;1,0;False;False;False;1,01600003242;True;1,03400015831
AKB1996w;game;2017-03-02-09-05-40;6,0;29,0;-100;1,0;2,0;3,0;0,0;column;1,0;True;False;True;0,881999969482;True;0,569000005722
AKB1996w;game;2017-03-02-09-05-40;6,0;30,0;-100;0,0;3,0;2,0;1,0;column;0,0;True;False;True;0,950000047684;True;0,730000019073
AKB1996w;game;2017-03-02-09-05-40;6,0;31,0;-100;1,0;3,0;0,0;2,0;row;1,0;False;False;False;0,816999912262;True;1,46300005913
AKB1996w;game;2017-03-02-09-05-40;6,0;32,0;-100;0,0;2,0;1,0;3,0;row;1,0;False;True;False;1,24900007248;True;0,896000146866
AKB1996w;game;2017-03-02-09-05-40;6,0;33,0;-100;1,0;3,0;2,0;0,0;row;1,0;True;False;True;1,28400015831;True;1,16999983788
AKB1996w;game;2017-03-02-09-05-40;6,0;34,0;-100;3,0;1,0;2,0;0,0;row;1,0;True;False;True;1,1139998436;True;1,29800009727
AKB1996w;game;2017-03-02-09-05-40;6,0;35,0;-100;3,0;1,0;0,0;2,0;row;1,0;False;False;False;1,75;True;1,17000007629
AKB1996w;game;2017-03-02-09-05-40;6,0;36,0;-100;0,0;3,0;1,0;2,0;row;0,0;True;False;True;0,815999984741;True;0,961999893188
AKB1996w;game;2017-03-02-09-05-40;6,0;37,0;-100;3,0;1,0;2,0;0,0;column;0,0;True;False;True;0,683000087738;True;1,36500000954
AKB1996w;game;2017-03-02-09-05-40;6,0;38,0;-100;0,0;3,0;1,0;2,0;column;1,0;True;True;True;0,884000062943;True;1,4279999733
AKB1996w;game;2017-03-02-09-05-40;6,0;39,0;-100;2,0;3,0;0,0;1,0;row;1,0;True;True;True;0,650000095367;True;1,09299993515
AKB1996w;game;2017-03-02-09-05-40;6,0;40,0;-100;3,0;2,0;1,0;0,0;column;0,0;True;True;True;1,28099989891;True;1,10000014305
AKB1996w;game;2017-03-02-09-05-40;6,0;41,0;-100;1,0;2,0;3,0;0,0;column;0,0;True;False;True;0,65700006485;True;0,830999851227
AKB1996w;game;2017-03-02-09-05-40;6,0;42,0;-100;2,0;1,0;0,0;3,0;row;0,0;True;True;True;1,04699993134;True;1,09299993515
AKB1996w;game;2017-03-02-09-05-40;6,0;43,0;-100;3,0;0,0;2,0;1,0;column;0,0;False;False;False;1,21499991417;True;1,10299992561
AKB1996w;game;2017-03-02-09-05-40;6,0;44,0;-100;0,0;1,0;2,0;3,0;column;1,0;True;True;True;1,11699986458;True;1,19900012016
AKB1996w;game;2017-03-02-09-05-40;6,0;45,0;-100;2,0;1,0;0,0;3,0;column;0,0;False;True;False;1,08200001717;True;0,664999961853
AKB1996w;game;2017-03-02-09-05-40;6,0;46,0;-100;0,0;2,0;3,0;1,0;column;0,0;True;True;True;1,14599990845;True;1,06500005722
AKB1996w;game;2017-03-02-09-05-40;6,0;47,0;-100;2,0;1,0;3,0;0,0;row;0,0;True;False;True;1,08200001717;True;0,792999982834
AKB1996w;game;2017-03-02-09-05-40;6,0;48,0;-100;3,0;0,0;1,0;2,0;column;0,0;False;True;False;0,950000047684;True;1,42300009727
AKB1996w;game;2017-03-02-09-05-40;7,0;1,0;-100;3,0;2,0;0,0;1,0;row;0,0;True;False;True;0,816999912262;True;1,45299983025
AKB1996w;game;2017-03-02-09-05-40;7,0;2,0;-100;2,0;1,0;3,0;0,0;row;0,0;False;True;False;0,717000007629;True;0,669000148773
AKB1996w;game;2017-03-02-09-05-40;7,0;3,0;-100;1,0;3,0;0,0;2,0;row;0,0;True;False;True;0,748999834061;True;0,832000017166
AKB1996w;game;2017-03-02-09-05-40;7,0;4,0;-100;0,0;1,0;3,0;2,0;column;1,0;False;True;False;0,783999919891;True;1,0640001297
AKB1996w;game;2017-03-02-09-05-40;7,0;5,0;-100;0,0;2,0;1,0;3,0;row;1,0;True;False;True;0,949000120163;True;0,599999904633
AKB1996w;game;2017-03-02-09-05-40;7,0;6,0;-100;2,0;1,0;0,0;3,0;column;1,0;True;True;False;5,21700000763;False;0,733999967575
AKB1996w;game;2017-03-02-09-05-40;7,0;7,0;-100;0,0;1,0;2,0;3,0;row;0,0;True;False;True;0,781000137329;True;0,832999944687
AKB1996w;game;2017-03-02-09-05-40;7,0;8,0;-100;3,0;2,0;1,0;0,0;column;1,0;True;True;True;0,815999984741;True;1,23600006104
AKB1996w;game;2017-03-02-09-05-40;7,0;9,0;-100;3,0;1,0;0,0;2,0;column;0,0;False;True;False;0,748000144958;True;0,796999931335
AKB1996w;game;2017-03-02-09-05-40;7,0;10,0;-100;3,0;2,0;1,0;0,0;row;0,0;False;True;False;0,782999992371;True;0,833999872208
AKB1996w;game;2017-03-02-09-05-40;7,0;11,0;-100;2,0;3,0;1,0;0,0;column;1,0;True;True;True;1,11699986458;True;0,635999917984
AKB1996w;game;2017-03-02-09-05-40;7,0;12,0;-100;3,0;0,0;2,0;1,0;column;1,0;True;False;True;0,75;True;0,891999959946
AKB1996w;game;2017-03-02-09-05-40;7,0;13,0;-100;2,0;0,0;1,0;3,0;row;1,0;True;False;True;0,915999889374;True;0,700999975204
AKB1996w;game;2017-03-02-09-05-40;7,0;14,0;-100;0,0;2,0;3,0;1,0;row;0,0;False;True;False;0,617000102997;True;1,25699996948
AKB1996w;game;2017-03-02-09-05-40;7,0;15,0;-100;2,0;3,0;1,0;0,0;row;0,0;False;False;False;0,717000007629;True;0,97000002861
AKB1996w;game;2017-03-02-09-05-40;7,0;16,0;-100;1,0;2,0;3,0;0,0;column;0,0;False;True;False;1,21700000763;True;0,588999986649
AKB1996w;game;2017-03-02-09-05-40;7,0;17,0;-100;2,0;1,0;3,0;0,0;column;0,0;False;False;False;1,28399991989;True;1,30099987984
AKB1996w;game;2017-03-02-09-05-40;7,0;18,0;-100;1,0;3,0;2,0;0,0;column;1,0;True;False;True;1,11599993706;True;0,963000059128
AKB1996w;game;2017-03-02-09-05-40;7,0;19,0;-100;0,0;2,0;3,0;1,0;column;1,0;False;True;False;1,28399991989;True;0,970999956131
AKB1996w;game;2017-03-02-09-05-40;7,0;20,0;-100;0,0;3,0;2,0;1,0;row;0,0;False;False;False;0,684000015259;True;1,46399998665
AKB1996w;game;2017-03-02-09-05-40;7,0;21,0;-100;2,0;0,0;3,0;1,0;row;0,0;False;True;False;0,8140001297;True;1,16700005531
AKB1996w;game;2017-03-02-09-05-40;7,0;22,0;-100;3,0;1,0;0,0;2,0;column;0,0;True;False;False;0,815999984741;False;1,02300000191
AKB1996w;game;2017-03-02-09-05-40;7,0;23,0;-100;3,0;0,0;2,0;1,0;column;0,0;True;False;True;0,983000040054;True;1,33099985123
AKB1996w;game;2017-03-02-09-05-40;7,0;24,0;-100;0,0;2,0;1,0;3,0;column;1,0;False;True;False;1,28399991989;True;1,32899999619
AKB1996w;game;2017-03-02-09-05-40;7,0;25,0;-100;1,0;0,0;2,0;3,0;row;0,0;False;False;False;1,117000103;True;1,49699997902
AKB1996w;game;2017-03-02-09-05-40;7,0;26,0;-100;0,0;2,0;3,0;1,0;row;1,0;True;True;True;1,24900007248;True;0,969999790192
AKB1996w;game;2017-03-02-09-05-40;7,0;27,0;-100;1,0;2,0;3,0;0,0;row;0,0;True;False;True;1,11600017548;True;1,33500003815
AKB1996w;game;2017-03-02-09-05-40;7,0;28,0;-100;3,0;0,0;2,0;1,0;row;0,0;True;True;True;1,08200001717;True;0,97000002861
AKB1996w;game;2017-03-02-09-05-40;7,0;29,0;-100;1,0;2,0;0,0;3,0;column;0,0;False;False;False;1,0490000248;True;1,47099995613
AKB1996w;game;2017-03-02-09-05-40;7,0;30,0;-100;2,0;1,0;0,0;3,0;row;1,0;False;True;False;1,34899997711;True;0,693000078201
AKB1996w;game;2017-03-02-09-05-40;7,0;31,0;-100;2,0;3,0;0,0;1,0;row;0,0;True;False;True;0,882999897003;True;1,49099993706
AKB1996w;game;2017-03-02-09-05-40;7,0;32,0;-100;3,0;2,0;1,0;0,0;row;1,0;True;True;True;0,813999891281;True;1,16699981689
AKB1996w;game;2017-03-02-09-05-40;7,0;33,0;-100;3,0;2,0;0,0;1,0;column;0,0;True;False;True;0,917000055313;True;0,565999984741
AKB1996w;game;2017-03-02-09-05-40;7,0;34,0;-100;1,0;0,0;3,0;2,0;row;1,0;False;False;False;0,990999937057;True;0,631999969482
AKB1996w;game;2017-03-02-09-05-40;7,0;35,0;-100;3,0;1,0;0,0;2,0;row;0,0;False;False;False;1,04800009727;True;1,29600000381
AKB1996w;game;2017-03-02-09-05-40;7,0;36,0;-100;3,0;0,0;1,0;2,0;column;1,0;False;False;False;1,01699995995;True;0,694999933243
AKB1996w;game;2017-03-02-09-05-40;7,0;37,0;-100;2,0;1,0;3,0;0,0;column;1,0;False;False;False;1,51499986649;True;1,46099996567
AKB1996w;game;2017-03-02-09-05-40;7,0;38,0;-100;0,0;1,0;3,0;2,0;row;0,0;False;False;False;0,916000127792;True;0,700000047684
AKB1996w;game;2017-03-02-09-05-40;7,0;39,0;-100;1,0;0,0;2,0;3,0;column;0,0;True;False;True;0,949000120163;True;1,43300008774
AKB1996w;game;2017-03-02-09-05-40;7,0;40,0;-100;0,0;3,0;2,0;1,0;column;1,0;True;True;True;1,01799988747;True;0,52799987793
AKB1996w;game;2017-03-02-09-05-40;7,0;41,0;-100;1,0;0,0;2,0;3,0;column;1,0;False;False;False;1,14999985695;True;1,02600002289
AKB1996w;game;2017-03-02-09-05-40;7,0;42,0;-100;1,0;0,0;3,0;2,0;row;1,0;True;True;True;0,77999997139;True;1,06500005722
AKB1996w;game;2017-03-02-09-05-40;7,0;43,0;-100;0,0;2,0;3,0;1,0;column;0,0;False;False;False;0,980000019073;True;1,3259999752
AKB1996w;game;2017-03-02-09-05-40;7,0;44,0;-100;3,0;2,0;0,0;1,0;row;1,0;True;False;True;0,981000185013;True;1,1360001564
AKB1996w;game;2017-03-02-09-05-40;7,0;45,0;-100;0,0;3,0;1,0;2,0;row;1,0;False;False;False;1,01700019836;True;1,43000006676
AKB1996w;game;2017-03-02-09-05-40;7,0;46,0;-100;0,0;1,0;3,0;2,0;row;1,0;True;True;True;0,924000024796;True;0,822999954224
AKB1996w;game;2017-03-02-09-05-40;7,0;47,0;-100;1,0;3,0;2,0;0,0;row;0,0;True;False;True;0,980999946594;True;1,16900014877
AKB1996w;game;2017-03-02-09-05-40;7,0;48,0;-100;0,0;2,0;1,0;3,0;column;0,0;True;False;True;0,75;True;0,993999958038
AKB1996w;game;2017-03-02-09-05-40;8,0;1,0;1000;1,0;3,0;0,0;2,0;row;0,0;True;False;True;0,632999897003;True;1,17900013924
AKB1996w;game;2017-03-02-09-05-40;8,0;2,0;1000;1,0;0,0;3,0;2,0;row;0,0;True;True;False;0,832999944687;False;1,43600010872
AKB1996w;game;2017-03-02-09-05-40;8,0;3,0;1000;2,0;3,0;0,0;1,0;row;1,0;False;False;False;1,13100004196;True;1,13000011444
AKB1996w;game;2017-03-02-09-05-40;8,0;4,0;1000;0,0;2,0;3,0;1,0;row;0,0;True;False;True;0,966000080109;True;1,30400013924
AKB1996w;game;2017-03-02-09-05-40;8,0;5,0;1000;2,0;1,0;0,0;3,0;row;0,0;False;True;False;1,13700008392;True;1,10199999809
AKB1996w;game;2017-03-02-09-05-40;8,0;6,0;1000;1,0;2,0;3,0;0,0;column;0,0;False;False;False;1,23300004005;True;0,767999887466
AKB1996w;game;2017-03-02-09-05-40;8,0;7,0;1000;3,0;2,0;1,0;0,0;row;1,0;False;False;False;1,19799995422;True;0,996999979019
AKB1996w;game;2017-03-02-09-05-40;8,0;8,0;1000;1,0;2,0;3,0;0,0;row;1,0;True;True;True;0,799999952316;True;1,22599983215
AKB1996w;game;2017-03-02-09-05-40;8,0;9,0;1000;3,0;2,0;0,0;1,0;column;0,0;True;False;True;0,899999856949;True;0,969000101089
AKB1996w;game;2017-03-02-09-05-40;8,0;10,0;1000;0,0;2,0;3,0;1,0;row;1,0;False;True;False;0,766999959946;True;1,23399996758
AKB1996w;game;2017-03-02-09-05-40;8,0;11,0;1000;0,0;3,0;1,0;2,0;column;0,0;False;True;False;1,46599984169;True;1,00500011444
AKB1996w;game;2017-03-02-09-05-40;8,0;12,0;1000;2,0;3,0;0,0;1,0;column;1,0;True;False;True;0,930999994278;True;1,29799985886
AKB1996w;game;2017-03-02-09-05-40;8,0;13,0;1000;1,0;0,0;2,0;3,0;row;1,0;False;False;False;1,367000103;True;0,770999908447
AKB1996w;game;2017-03-02-09-05-40;8,0;14,0;1000;1,0;0,0;2,0;3,0;row;0,0;True;False;True;1,03399991989;True;0,669999837875
AKB1996w;game;2017-03-02-09-05-40;8,0;15,0;1000;1,0;2,0;0,0;3,0;row;1,0;False;False;False;0,967000007629;True;1,26200008392
AKB1996w;game;2017-03-02-09-05-40;8,0;16,0;1000;0,0;2,0;3,0;1,0;column;1,0;True;False;True;0,933000087738;True;0,570000171661
AKB1996w;game;2017-03-02-09-05-40;8,0;17,0;1000;3,0;1,0;0,0;2,0;row;0,0;False;False;False;1,40100002289;True;1,43300008774
AKB1996w;game;2017-03-02-09-05-40;8,0;18,0;1000;1,0;0,0;2,0;3,0;column;1,0;False;False;False;1,5;True;1,07099986076
AKB1996w;game;2017-03-02-09-05-40;8,0;19,0;1000;2,0;0,0;3,0;1,0;row;1,0;True;False;True;1,20000004768;True;0,756999969482
AKB1996w;game;2017-03-02-09-05-40;8,0;20,0;1000;2,0;3,0;0,0;1,0;column;0,0;False;True;False;1,56700015068;True;0,9359998703
AKB1996w;game;2017-03-02-09-05-40;8,0;21,0;1000;0,0;1,0;2,0;3,0;column;0,0;True;False;True;1,46700000763;True;1,20500016212
AKB1996w;game;2017-03-02-09-05-40;8,0;22,0;1000;3,0;2,0;0,0;1,0;row;1,0;False;True;False;1,132999897;True;1,4960000515
AKB1996w;game;2017-03-02-09-05-40;8,0;23,0;1000;0,0;3,0;2,0;1,0;row;0,0;True;True;True;1,03299999237;True;1,42800021172
AKB1996w;game;2017-03-02-09-05-40;8,0;24,0;1000;3,0;1,0;0,0;2,0;column;0,0;False;False;False;2,13300013542;True;1,46499991417
AKB1996w;game;2017-03-02-09-05-40;8,0;25,0;1000;3,0;1,0;2,0;0,0;row;0,0;False;True;False;1,20000004768;True;1,33199977875
AKB1996w;game;2017-03-02-09-05-40;8,0;26,0;1000;1,0;2,0;0,0;3,0;row;0,0;True;True;True;0,865000009537;True;0,524999856949
AKB1996w;game;2017-03-02-09-05-40;8,0;27,0;1000;1,0;3,0;2,0;0,0;row;1,0;True;False;True;1,06699991226;True;0,824000120163
AKB1996w;game;2017-03-02-09-05-40;8,0;28,0;1000;1,0;2,0;3,0;0,0;column;1,0;False;True;False;0,967000007629;True;0,730999946594
AKB1996w;game;2017-03-02-09-05-40;8,0;29,0;1000;2,0;1,0;3,0;0,0;column;1,0;False;True;False;1,9960000515;True;0,733999967575
AKB1996w;game;2017-03-02-09-05-40;8,0;30,0;1000;3,0;1,0;0,0;2,0;row;0,0;True;False;True;1,29999995232;True;1,15899991989
AKB1996w;game;2017-03-02-09-05-40;8,0;31,0;1000;2,0;1,0;0,0;3,0;row;0,0;True;False;True;1,33299994469;True;1,23300004005
AKB1996w;game;2017-03-02-09-05-40;8,0;32,0;1000;2,0;3,0;0,0;1,0;row;0,0;True;True;True;1,20000004768;True;0,929000139236
AKB1996w;game;2017-03-02-09-05-40;8,0;33,0;1000;0,0;2,0;1,0;3,0;row;0,0;False;False;False;0,899999856949;True;0,693000078201
AKB1996w;game;2017-03-02-09-05-40;8,0;34,0;1000;1,0;3,0;2,0;0,0;column;1,0;True;False;True;1,5;True;1,02700018883
AKB1996w;game;2017-03-02-09-05-40;8,0;35,0;1000;3,0;2,0;1,0;0,0;column;1,0;False;True;False;1,29999995232;True;0,930999994278
AKB1996w;game;2017-03-02-09-05-40;8,0;36,0;1000;1,0;0,0;3,0;2,0;row;1,0;True;True;False;1,23399996758;False;0,933000087738
AKB1996w;game;2017-03-02-09-05-40;8,0;37,0;1000;3,0;0,0;1,0;2,0;row;1,0;False;False;False;1,03399991989;True;1,49400019646
AKB1996w;game;2017-03-02-09-05-40;8,0;38,0;1000;3,0;1,0;2,0;0,0;column;1,0;True;False;False;1,43299984932;False;1,16299986839
AKB1996w;game;2017-03-02-09-05-40;8,0;39,0;1000;1,0;3,0;2,0;0,0;column;1,0;False;True;False;0,933000087738;True;0,666000127792
AKB1996w;game;2017-03-02-09-05-40;8,0;40,0;1000;3,0;0,0;2,0;1,0;column;0,0;True;True;False;1,23199987411;False;1,46199989319
AKB1996w;game;2017-03-02-09-05-40;8,0;41,0;1000;3,0;1,0;0,0;2,0;column;0,0;True;True;True;0,932999849319;True;1,09100008011
AKB1996w;game;2017-03-02-09-05-40;8,0;42,0;1000;1,0;0,0;2,0;3,0;column;0,0;False;True;False;0,633000135422;True;0,994999885559
AKB1996w;game;2017-03-02-09-05-40;8,0;43,0;1000;1,0;0,0;2,0;3,0;row;0,0;False;False;True;0,801000118256;False;0,973000049591
AKB1996w;game;2017-03-02-09-05-40;8,0;44,0;1000;1,0;3,0;2,0;0,0;row;0,0;False;True;False;1,49900007248;True;1,45799994469
AKB1996w;game;2017-03-02-09-05-40;8,0;45,0;1000;1,0;2,0;3,0;0,0;column;0,0;True;False;True;0,898999929428;True;1,0600001812
AKB1996w;game;2017-03-02-09-05-40;8,0;46,0;1000;3,0;1,0;2,0;0,0;column;0,0;False;True;False;0,865999937057;True;0,861000061035
AKB1996w;game;2017-03-02-09-05-40;8,0;47,0;1000;0,0;1,0;2,0;3,0;row;1,0;True;False;True;1,43300008774;True;1,32999992371
AKB1996w;game;2017-03-02-09-05-40;8,0;48,0;1000;0,0;2,0;3,0;1,0;column;1,0;False;False;True;1,16700005531;False;0,56500005722
AKB1996w;game;2017-03-02-09-05-40;9,0;1,0;100;2,0;0,0;3,0;1,0;column;1,0;True;True;True;1,33299994469;True;0,960000038147
AKB1996w;game;2017-03-02-09-05-40;9,0;2,0;100;3,0;2,0;1,0;0,0;column;0,0;False;True;False;1,0;True;0,928999900818
AKB1996w;game;2017-03-02-09-05-40;9,0;3,0;100;3,0;1,0;0,0;2,0;column;1,0;True;True;True;1,13300013542;True;0,871999979019
AKB1996w;game;2017-03-02-09-05-40;9,0;4,0;100;1,0;2,0;3,0;0,0;column;1,0;True;True;True;1,03299999237;True;1,13100004196
AKB1996w;game;2017-03-02-09-05-40;9,0;5,0;100;2,0;0,0;1,0;3,0;column;1,0;True;True;True;1,56699991226;True;0,699999809265
AKB1996w;game;2017-03-02-09-05-40;9,0;6,0;100;3,0;2,0;0,0;1,0;column;1,0;True;True;True;1,09999990463;True;1,26799988747
AKB1996w;game;2017-03-02-09-05-40;9,0;7,0;100;1,0;2,0;0,0;3,0;row;0,0;False;False;False;1,30100011826;True;1,17000007629
AKB1996w;game;2017-03-02-09-05-40;9,0;8,0;100;2,0;1,0;0,0;3,0;column;1,0;True;False;True;1,36699986458;True;1,30200004578
AKB1996w;game;2017-03-02-09-05-40;9,0;9,0;100;3,0;2,0;1,0;0,0;row;0,0;False;False;False;1,132999897;True;1,32999992371
AKB1996w;game;2017-03-02-09-05-40;9,0;10,0;100;1,0;3,0;2,0;0,0;column;1,0;False;False;False;1,49700021744;True;0,934000015259
AKB1996w;game;2017-03-02-09-05-40;9,0;11,0;100;0,0;1,0;2,0;3,0;row;1,0;False;True;True;1,43400001526;False;0,736999988556
AKB1996w;game;2017-03-02-09-05-40;9,0;12,0;100;0,0;2,0;3,0;1,0;column;1,0;False;True;False;1,56699991226;True;1,42999982834
AKB1996w;game;2017-03-02-09-05-40;9,0;13,0;100;0,0;1,0;3,0;2,0;column;1,0;False;True;False;1,13300013542;True;0,664999961853
AKB1996w;game;2017-03-02-09-05-40;9,0;14,0;100;2,0;1,0;0,0;3,0;column;0,0;True;False;True;1,06599998474;True;0,993000030518
AKB1996w;game;2017-03-02-09-05-40;9,0;15,0;100;2,0;3,0;0,0;1,0;row;0,0;True;False;True;1,70000004768;True;1,52499985695
AKB1996w;game;2017-03-02-09-05-40;9,0;16,0;100;2,0;3,0;1,0;0,0;column;0,0;True;True;True;1,46700000763;True;0,734000205994
AKB1996w;game;2017-03-02-09-05-40;9,0;17,0;100;2,0;0,0;1,0;3,0;column;0,0;True;False;True;1,10000014305;True;0,99799990654
AKB1996w;game;2017-03-02-09-05-40;9,0;18,0;100;3,0;0,0;1,0;2,0;column;1,0;True;False;True;1,70000004768;True;1,26600003242
AKB1996w;game;2017-03-02-09-05-40;9,0;19,0;100;0,0;2,0;3,0;1,0;row;0,0;True;True;False;2,03399991989;False;0,792000055313
AKB1996w;game;2017-03-02-09-05-40;9,0;20,0;100;0,0;1,0;3,0;2,0;column;0,0;False;True;False;1,06599998474;True;1,23399996758
AKB1996w;game;2017-03-02-09-05-40;9,0;21,0;100;2,0;3,0;0,0;1,0;row;1,0;True;True;True;1,30000019073;True;0,532999992371
AKB1996w;game;2017-03-02-09-05-40;9,0;22,0;100;3,0;1,0;2,0;0,0;column;0,0;False;False;False;1,56700015068;True;1,1970000267
AKB1996w;game;2017-03-02-09-05-40;9,0;23,0;100;3,0;1,0;0,0;2,0;column;1,0;False;True;True;2,03399991989;False;1,32399988174
AKB1996w;game;2017-03-02-09-05-40;9,0;24,0;100;1,0;2,0;0,0;3,0;row;1,0;False;False;False;1,06599998474;True;0,935000181198
AKB1996w;game;2017-03-02-09-05-40;9,0;25,0;100;0,0;3,0;1,0;2,0;row;1,0;False;False;False;1,06599998474;True;0,56200003624
AKB1996w;game;2017-03-02-09-05-40;9,0;26,0;100;3,0;2,0;1,0;0,0;column;1,0;False;False;False;1,43099999428;True;0,596999883652
AKB1996w;game;2017-03-02-09-05-40;9,0;27,0;100;3,0;1,0;2,0;0,0;row;1,0;True;False;True;0,864000082016;True;1,30100011826
AKB1996w;game;2017-03-02-09-05-40;9,0;28,0;100;2,0;3,0;1,0;0,0;column;0,0;False;True;False;1,2650001049;True;1,3710000515
AKB1996w;game;2017-03-02-09-05-40;9,0;29,0;100;3,0;2,0;0,0;1,0;row;1,0;True;True;True;0,868000030518;True;1,12700009346
AKB1996w;game;2017-03-02-09-05-40;9,0;30,0;100;1,0;0,0;3,0;2,0;row;0,0;False;False;False;1,19800019264;True;0,99799990654
AKB1996w;game;2017-03-02-09-05-40;9,0;31,0;100;2,0;3,0;0,0;1,0;column;0,0;True;True;True;1,03399991989;True;0,634000062943
AKB1996w;game;2017-03-02-09-05-40;9,0;32,0;100;0,0;2,0;1,0;3,0;column;1,0;True;False;True;0,966999769211;True;0,626999855042
AKB1996w;game;2017-03-02-09-05-40;9,0;33,0;100;0,0;1,0;3,0;2,0;row;0,0;True;False;True;0,933000087738;True;1,19599986076
AKB1996w;game;2017-03-02-09-05-40;9,0;34,0;100;0,0;3,0;2,0;1,0;row;1,0;False;False;False;2,86699986458;True;0,792999982834
AKB1996w;game;2017-03-02-09-05-40;9,0;35,0;100;0,0;3,0;1,0;2,0;column;1,0;True;False;False;0,976999998093;False;0,964999914169
AKB1996w;game;2017-03-02-09-05-40;9,0;36,0;100;3,0;1,0;0,0;2,0;column;0,0;False;True;False;1,86500000954;True;0,56500005722
AKB1996w;game;2017-03-02-09-05-40;9,0;37,0;100;3,0;0,0;1,0;2,0;column;0,0;False;False;False;1,16700005531;True;1,43499994278
AKB1996w;game;2017-03-02-09-05-40;9,0;38,0;100;3,0;0,0;1,0;2,0;row;1,0;False;False;False;1,4319999218;True;1,1970000267
AKB1996w;game;2017-03-02-09-05-40;9,0;39,0;100;2,0;1,0;3,0;0,0;row;0,0;False;True;False;0,799000024796;True;1,06500005722
AKB1996w;game;2017-03-02-09-05-40;9,0;40,0;100;3,0;0,0;1,0;2,0;column;1,0;False;False;False;1,03400015831;True;1,03400015831
AKB1996w;game;2017-03-02-09-05-40;9,0;41,0;100;3,0;0,0;1,0;2,0;row;0,0;True;True;True;1,56599998474;True;1,33299994469
AKB1996w;game;2017-03-02-09-05-40;9,0;42,0;100;0,0;2,0;3,0;1,0;column;0,0;True;False;True;0,833000183105;True;0,962999820709
AKB1996w;game;2017-03-02-09-05-40;9,0;43,0;100;3,0;2,0;1,0;0,0;column;1,0;True;True;True;1,43299984932;True;0,771999835968
AKB1996w;game;2017-03-02-09-05-40;9,0;44,0;100;3,0;0,0;2,0;1,0;row;1,0;False;False;False;1,16700005531;True;0,564999818802
AKB1996w;game;2017-03-02-09-05-40;9,0;45,0;100;2,0;0,0;3,0;1,0;column;1,0;False;True;False;2,03199982643;True;1,13000011444
AKB1996w;game;2017-03-02-09-05-40;9,0;46,0;100;3,0;1,0;2,0;0,0;row;0,0;False;False;False;0,933000087738;True;1,13499999046
AKB1996w;game;2017-03-02-09-05-40;9,0;47,0;100;0,0;3,0;1,0;2,0;column;1,0;False;True;True;1,16700005531;False;1,42700004578
AKB1996w;game;2017-03-02-09-05-40;9,0;48,0;100;1,0;3,0;0,0;2,0;row;1,0;True;True;True;0,967000007629;True;0,692000150681
AKB1996w;game;2017-03-02-09-05-40;10,0;1,0;-100;3,0;1,0;2,0;0,0;column;1,0;True;True;True;1,64900016785;True;0,856999874115
AKB1996w;game;2017-03-02-09-05-40;10,0;2,0;-100;0,0;1,0;3,0;2,0;row;0,0;True;True;True;1,08200001717;True;0,936000108719
AKB1996w;game;2017-03-02-09-05-40;10,0;3,0;-100;1,0;0,0;3,0;2,0;column;0,0;False;False;False;0,882999897003;True;1,29500007629
AKB1996w;game;2017-03-02-09-05-40;10,0;4,0;-100;3,0;0,0;1,0;2,0;row;0,0;False;True;False;0,949000120163;True;0,802000045776
AKB1996w;game;2017-03-02-09-05-40;10,0;5,0;-100;0,0;2,0;1,0;3,0;column;1,0;True;True;True;1,25;True;1,3029999733
AKB1996w;game;2017-03-02-09-05-40;10,0;6,0;-100;1,0;0,0;3,0;2,0;column;1,0;False;True;False;1,25;True;1,26999998093
AKB1996w;game;2017-03-02-09-05-40;10,0;7,0;-100;0,0;3,0;2,0;1,0;row;0,0;True;False;True;0,980000019073;True;1,40399980545
AKB1996w;game;2017-03-02-09-05-40;10,0;8,0;-100;1,0;0,0;3,0;2,0;row;0,0;False;False;False;0,982999801636;True;1,2009999752
AKB1996w;game;2017-03-02-09-05-40;10,0;9,0;-100;1,0;0,0;2,0;3,0;row;1,0;False;True;False;1,11400008202;True;1,2009999752
AKB1996w;game;2017-03-02-09-05-40;10,0;10,0;-100;0,0;2,0;3,0;1,0;row;0,0;True;False;True;0,947999954224;True;0,668999910355
AKB1996w;game;2017-03-02-09-05-40;10,0;11,0;-100;0,0;2,0;3,0;1,0;row;1,0;False;False;False;1,01699995995;True;0,537000179291
AKB1996w;game;2017-03-02-09-05-40;10,0;12,0;-100;3,0;0,0;1,0;2,0;row;1,0;True;False;True;0,881999969482;True;0,605000019073
AKB1996w;game;2017-03-02-09-05-40;10,0;13,0;-100;2,0;3,0;1,0;0,0;column;0,0;True;False;True;0,782999992371;True;1,25699996948
AKB1996w;game;2017-03-02-09-05-40;10,0;14,0;-100;3,0;1,0;0,0;2,0;row;0,0;True;True;True;0,848999977112;True;0,967000007629
AKB1996w;game;2017-03-02-09-05-40;10,0;15,0;-100;2,0;0,0;3,0;1,0;row;0,0;True;False;True;0,950999975204;True;1,43300008774
AKB1996w;game;2017-03-02-09-05-40;10,0;16,0;-100;2,0;0,0;3,0;1,0;column;0,0;False;False;False;1,04999995232;True;1,40100002289
AKB1996w;game;2017-03-02-09-05-40;10,0;17,0;-100;0,0;1,0;3,0;2,0;row;1,0;False;True;False;1,14900016785;True;0,530999898911
AKB1996w;game;2017-03-02-09-05-40;10,0;18,0;-100;3,0;1,0;2,0;0,0;row;1,0;False;False;False;1,15499997139;True;1,06999993324
AKB1996w;game;2017-03-02-09-05-40;10,0;19,0;-100;1,0;2,0;0,0;3,0;row;1,0;True;False;True;0,849999904633;True;0,697000026703
AKB1996w;game;2017-03-02-09-05-40;10,0;20,0;-100;2,0;1,0;0,0;3,0;column;1,0;False;False;False;0,884000062943;True;1,16899991035
AKB1996w;game;2017-03-02-09-05-40;10,0;21,0;-100;2,0;1,0;3,0;0,0;column;0,0;True;True;True;0,84900021553;True;0,731000185013
AKB1996w;game;2017-03-02-09-05-40;10,0;22,0;-100;2,0;0,0;3,0;1,0;column;0,0;True;True;True;0,759000062943;True;0,539000034332
AKB1996w;game;2017-03-02-09-05-40;10,0;23,0;-100;2,0;3,0;0,0;1,0;row;0,0;False;False;False;0,884000062943;True;0,636000156403
AKB1996w;game;2017-03-02-09-05-40;10,0;24,0;-100;3,0;0,0;1,0;2,0;column;0,0;True;True;True;0,882999897003;True;1,2990000248
AKB1996w;game;2017-03-02-09-05-40;10,0;25,0;-100;3,0;2,0;0,0;1,0;column;0,0;False;True;False;0,816999912262;True;0,832999944687
AKB1996w;game;2017-03-02-09-05-40;10,0;26,0;-100;2,0;1,0;0,0;3,0;row;1,0;True;False;False;0,78200006485;False;0,924999952316
AKB1996w;game;2017-03-02-09-05-40;10,0;27,0;-100;1,0;0,0;3,0;2,0;row;0,0;True;False;True;1,41699981689;True;0,796000003815
AKB1996w;game;2017-03-02-09-05-40;10,0;28,0;-100;1,0;3,0;0,0;2,0;column;1,0;False;False;False;1,01300001144;True;1,09200000763
AKB1996w;game;2017-03-02-09-05-40;10,0;29,0;-100;2,0;0,0;3,0;1,0;column;1,0;False;False;False;1,01600003242;True;1,46700000763
AKB1996w;game;2017-03-02-09-05-40;10,0;30,0;-100;0,0;3,0;1,0;2,0;column;1,0;False;True;False;0,881000041962;True;1,02900004387
AKB1996w;game;2017-03-02-09-05-40;10,0;31,0;-100;1,0;3,0;2,0;0,0;column;1,0;False;False;True;1,08299994469;False;1,46099996567
AKB1996w;game;2017-03-02-09-05-40;10,0;32,0;-100;2,0;0,0;3,0;1,0;column;1,0;True;False;True;1,58299994469;True;0,537000179291
AKB1996w;game;2017-03-02-09-05-40;10,0;33,0;-100;3,0;1,0;0,0;2,0;column;1,0;True;False;True;0,817000150681;True;0,969000101089
AKB1996w;game;2017-03-02-09-05-40;10,0;34,0;-100;3,0;1,0;0,0;2,0;column;1,0;False;False;False;0,749000072479;True;0,736999988556
AKB1996w;game;2017-03-02-09-05-40;10,0;35,0;-100;0,0;3,0;2,0;1,0;row;1,0;False;False;False;0,825999975204;True;0,891999959946
AKB1996w;game;2017-03-02-09-05-40;10,0;36,0;-100;0,0;3,0;1,0;2,0;column;0,0;True;True;True;1,58100008965;True;1,10100007057
AKB1996w;game;2017-03-02-09-05-40;10,0;37,0;-100;3,0;0,0;2,0;1,0;column;1,0;False;False;False;1,01600003242;True;1,02800011635
AKB1996w;game;2017-03-02-09-05-40;10,0;38,0;-100;1,0;0,0;2,0;3,0;row;1,0;True;False;True;0,815999984741;True;1,19799995422
AKB1996w;game;2017-03-02-09-05-40;10,0;39,0;-100;2,0;3,0;1,0;0,0;column;1,0;False;True;False;1,21700000763;True;0,673999786377
AKB1996w;game;2017-03-02-09-05-40;10,0;40,0;-100;2,0;0,0;1,0;3,0;row;1,0;False;True;False;1,24900007248;True;0,598000049591
AKB1996w;game;2017-03-02-09-05-40;10,0;41,0;-100;3,0;0,0;1,0;2,0;column;1,0;True;True;True;0,981999874115;True;0,697999954224
AKB1996w;game;2017-03-02-09-05-40;10,0;42,0;-100;3,0;0,0;2,0;1,0;row;1,0;True;False;True;2,08199977875;True;0,600999832153
AKB1996w;game;2017-03-02-09-05-40;10,0;43,0;-100;2,0;1,0;0,0;3,0;row;0,0;False;True;False;1,15000009537;True;1,19600009918
AKB1996w;game;2017-03-02-09-05-40;10,0;44,0;-100;2,0;0,0;1,0;3,0;column;0,0;False;True;False;0,915999889374;True;0,694999933243
AKB1996w;game;2017-03-02-09-05-40;10,0;45,0;-100;1,0;2,0;3,0;0,0;row;0,0;False;True;False;1,11800003052;True;0,924999952316
AKB1996w;game;2017-03-02-09-05-40;10,0;46,0;-100;0,0;1,0;2,0;3,0;column;0,0;True;False;True;0,71599984169;True;1,16400003433
AKB1996w;game;2017-03-02-09-05-40;10,0;47,0;-100;1,0;0,0;3,0;2,0;column;1,0;True;False;True;1,28900003433;True;0,892000198364
AKB1996w;game;2017-03-02-09-05-40;10,0;48,0;-100;3,0;2,0;0,0;1,0;column;1,0;True;False;True;0,780999898911;True;1,19600009918
AKB1996w;game;2017-03-02-09-05-40;11,0;1,0;100;2,0;1,0;3,0;0,0;row;1,0;False;True;False;2,0;True;0,947000026703
AKB1996w;game;2017-03-02-09-05-40;11,0;2,0;100;1,0;0,0;3,0;2,0;column;1,0;False;True;False;0,765000104904;True;0,662999868393
AKB1996w;game;2017-03-02-09-05-40;11,0;3,0;100;0,0;2,0;1,0;3,0;column;0,0;False;True;False;1,10000014305;True;0,99799990654
AKB1996w;game;2017-03-02-09-05-40;11,0;4,0;100;1,0;3,0;2,0;0,0;column;0,0;True;True;True;1,03299999237;True;1,13199996948
AKB1996w;game;2017-03-02-09-05-40;11,0;5,0;100;1,0;0,0;2,0;3,0;column;0,0;True;True;True;1,23399996758;True;0,68700003624
AKB1996w;game;2017-03-02-09-05-40;11,0;6,0;100;0,0;1,0;2,0;3,0;row;0,0;False;False;False;1,0;True;0,802999973297
AKB1996w;game;2017-03-02-09-05-40;11,0;7,0;100;1,0;0,0;2,0;3,0;column;1,0;True;False;True;1,19999980927;True;1,03799986839
AKB1996w;game;2017-03-02-09-05-40;11,0;8,0;100;1,0;0,0;3,0;2,0;column;0,0;True;True;False;1,23200011253;False;1,5039999485
AKB1996w;game;2017-03-02-09-05-40;11,0;9,0;100;1,0;3,0;0,0;2,0;row;0,0;True;True;True;1,29999995232;True;0,768000125885
AKB1996w;game;2017-03-02-09-05-40;11,0;10,0;100;2,0;0,0;1,0;3,0;row;1,0;False;True;False;0,763999938965;True;0,901000022888
AKB1996w;game;2017-03-02-09-05-40;11,0;11,0;100;1,0;2,0;3,0;0,0;column;0,0;False;False;False;1,30000019073;True;1,17199993134
AKB1996w;game;2017-03-02-09-05-40;11,0;12,0;100;1,0;3,0;0,0;2,0;column;1,0;True;False;True;0,932999849319;True;1,32299995422
AKB1996w;game;2017-03-02-09-05-40;11,0;13,0;100;3,0;0,0;2,0;1,0;column;0,0;True;True;True;1,06599998474;True;1,19900012016
AKB1996w;game;2017-03-02-09-05-40;11,0;14,0;100;0,0;3,0;1,0;2,0;column;0,0;False;False;False;1,132999897;True;1,49500012398
AKB1996w;game;2017-03-02-09-05-40;11,0;15,0;100;1,0;2,0;0,0;3,0;column;0,0;True;False;True;0,766000032425;True;0,662000179291
AKB1996w;game;2017-03-02-09-05-40;11,0;16,0;100;0,0;3,0;2,0;1,0;row;1,0;True;True;True;1,26400017738;True;0,802999973297
AKB1996w;game;2017-03-02-09-05-40;11,0;17,0;100;1,0;0,0;3,0;2,0;row;1,0;True;True;True;1,76800012589;True;0,766000032425
AKB1996w;game;2017-03-02-09-05-40;11,0;18,0;100;0,0;1,0;2,0;3,0;column;0,0;True;False;True;0,867000102997;True;0,925999879837
AKB1996w;game;2017-03-02-09-05-40;11,0;19,0;100;1,0;0,0;3,0;2,0;column;0,0;False;False;False;1,03299999237;True;1,47099995613
AKB1996w;game;2017-03-02-09-05-40;11,0;20,0;100;2,0;0,0;1,0;3,0;row;0,0;False;True;False;1,06599998474;True;0,569999933243
AKB1996w;game;2017-03-02-09-05-40;11,0;21,0;100;0,0;3,0;1,0;2,0;column;0,0;True;False;True;0,966000080109;True;0,571000099182
AKB1996w;game;2017-03-02-09-05-40;11,0;22,0;100;2,0;1,0;3,0;0,0;column;1,0;True;True;True;1,46600008011;True;1,46799993515
AKB1996w;game;2017-03-02-09-05-40;11,0;23,0;100;0,0;3,0;2,0;1,0;row;0,0;False;True;False;1,09999990463;True;1,46399998665
AKB1996w;game;2017-03-02-09-05-40;11,0;24,0;100;3,0;1,0;0,0;2,0;row;1,0;False;False;False;1,33299994469;True;1,05899977684
AKB1996w;game;2017-03-02-09-05-40;11,0;25,0;100;2,0;3,0;0,0;1,0;column;1,0;False;True;False;1,53400015831;True;0,935000181198
AKB1996w;game;2017-03-02-09-05-40;11,0;26,0;100;1,0;0,0;3,0;2,0;column;1,0;True;False;True;1,0;True;1,05900001526
AKB1996w;game;2017-03-02-09-05-40;11,0;27,0;100;2,0;0,0;1,0;3,0;row;1,0;True;False;True;0,967000007629;True;0,539000034332
AKB1996w;game;2017-03-02-09-05-40;11,0;28,0;100;1,0;3,0;0,0;2,0;row;0,0;False;True;False;1,33400011063;True;1,39499998093
AKB1996w;game;2017-03-02-09-05-40;11,0;29,0;100;2,0;1,0;0,0;3,0;column;1,0;False;True;False;1,26699995995;True;1,32100009918
AKB1996w;game;2017-03-02-09-05-40;11,0;30,0;100;2,0;3,0;1,0;0,0;row;1,0;True;False;True;0,998999834061;True;1,35800004005
AKB1996w;game;2017-03-02-09-05-40;11,0;31,0;100;2,0;0,0;3,0;1,0;row;1,0;False;True;False;1,40000009537;True;1,16899991035
AKB1996w;game;2017-03-02-09-05-40;11,0;32,0;100;0,0;2,0;1,0;3,0;row;0,0;False;False;False;0,866000175476;True;1,5039999485
AKB1996w;game;2017-03-02-09-05-40;11,0;33,0;100;1,0;0,0;2,0;3,0;row;0,0;True;False;True;0,934000015259;True;1,20299983025
AKB1996w;game;2017-03-02-09-05-40;11,0;34,0;100;3,0;2,0;0,0;1,0;row;0,0;False;True;False;0,932999849319;True;0,957999944687
AKB1996w;game;2017-03-02-09-05-40;11,0;35,0;100;2,0;3,0;0,0;1,0;column;0,0;False;True;False;1,20000004768;True;1,23399996758
AKB1996w;game;2017-03-02-09-05-40;11,0;36,0;100;2,0;3,0;1,0;0,0;row;1,0;False;False;False;1,70000004768;True;1,03600001335
AKB1996w;game;2017-03-02-09-05-40;11,0;37,0;100;1,0;2,0;0,0;3,0;row;0,0;True;True;True;1,0;True;1,39700007439
AKB1996w;game;2017-03-02-09-05-40;11,0;38,0;100;0,0;2,0;3,0;1,0;column;1,0;True;True;True;1,16599988937;True;0,662000179291
AKB1996w;game;2017-03-02-09-05-40;11,0;39,0;100;3,0;2,0;1,0;0,0;row;1,0;False;True;False;1,03400015831;True;1,13199996948
AKB1996w;game;2017-03-02-09-05-40;11,0;40,0;100;0,0;3,0;2,0;1,0;column;0,0;False;False;False;1,06699991226;True;0,730999946594
AKB1996w;game;2017-03-02-09-05-40;11,0;41,0;100;0,0;2,0;1,0;3,0;row;1,0;True;True;True;0,832999944687;True;1,06299996376
AKB1996w;game;2017-03-02-09-05-40;11,0;42,0;100;1,0;2,0;3,0;0,0;column;0,0;True;False;True;0,833999872208;True;1,03599977493
AKB1996w;game;2017-03-02-09-05-40;11,0;43,0;100;1,0;2,0;3,0;0,0;row;0,0;True;False;True;1,132999897;True;1,10500001907
AKB1996w;game;2017-03-02-09-05-40;11,0;44,0;100;3,0;1,0;0,0;2,0;row;1,0;True;True;True;0,598000049591;True;0,56299996376
AKB1996w;game;2017-03-02-09-05-40;11,0;45,0;100;0,0;3,0;2,0;1,0;column;1,0;False;False;False;2,56699991226;True;0,90299987793
AKB1996w;game;2017-03-02-09-05-40;11,0;46,0;100;3,0;0,0;2,0;1,0;column;1,0;False;True;False;0,865999937057;True;1,26799988747
AKB1996w;game;2017-03-02-09-05-40;11,0;47,0;100;1,0;2,0;3,0;0,0;row;1,0;False;False;False;1,59899997711;True;0,670000076294
AKB1996w;game;2017-03-02-09-05-40;11,0;48,0;100;1,0;3,0;2,0;0,0;column;0,0;False;True;False;1,96700000763;True;0,632000207901
AKB1996w;game;2017-03-02-09-05-40;12,0;1,0;1000;3,0;2,0;0,0;1,0;column;0,0;False;True;False;1,29999995232;True;0,725000143051
AKB1996w;game;2017-03-02-09-05-40;12,0;2,0;1000;0,0;1,0;2,0;3,0;row;1,0;False;True;False;1,09999990463;True;0,659999847412
AKB1996w;game;2017-03-02-09-05-40;12,0;3,0;1000;2,0;1,0;0,0;3,0;row;1,0;False;True;False;1,16599988937;True;1,02600002289
AKB1996w;game;2017-03-02-09-05-40;12,0;4,0;1000;2,0;0,0;1,0;3,0;column;1,0;True;True;True;0,866999864578;True;0,929999828339
AKB1996w;game;2017-03-02-09-05-40;12,0;5,0;1000;0,0;2,0;1,0;3,0;row;1,0;False;False;False;1,23300004005;True;0,833999872208
AKB1996w;game;2017-03-02-09-05-40;12,0;6,0;1000;3,0;2,0;1,0;0,0;row;0,0;False;False;False;1,53299999237;True;0,533999919891
AKB1996w;game;2017-03-02-09-05-40;12,0;7,0;1000;2,0;3,0;1,0;0,0;column;1,0;False;False;False;1,33400011063;True;1,05800008774
AKB1996w;game;2017-03-02-09-05-40;12,0;8,0;1000;1,0;2,0;3,0;0,0;row;0,0;False;False;False;1,86599993706;True;0,633999824524
AKB1996w;game;2017-03-02-09-05-40;12,0;9,0;1000;3,0;0,0;2,0;1,0;column;1,0;True;True;True;1,132999897;True;0,833999872208
AKB1996w;game;2017-03-02-09-05-40;12,0;10,0;1000;2,0;1,0;3,0;0,0;column;1,0;True;False;True;1,5;True;0,93499994278
AKB1996w;game;2017-03-02-09-05-40;12,0;11,0;1000;2,0;1,0;3,0;0,0;row;0,0;False;False;False;0,998000144958;True;0,52999997139
AKB1996w;game;2017-03-02-09-05-40;12,0;12,0;1000;1,0;2,0;3,0;0,0;row;0,0;True;True;False;1,16599988937;False;0,923000097275
AKB1996w;game;2017-03-02-09-05-40;12,0;13,0;1000;2,0;3,0;0,0;1,0;column;1,0;False;False;False;1,13199996948;True;0,835000038147
AKB1996w;game;2017-03-02-09-05-40;12,0;14,0;1000;0,0;3,0;2,0;1,0;row;0,0;False;True;False;0,900000095367;True;0,789999961853
AKB1996w;game;2017-03-02-09-05-40;12,0;15,0;1000;3,0;0,0;1,0;2,0;row;0,0;True;True;False;1,09800004959;False;0,936000108719
AKB1996w;game;2017-03-02-09-05-40;12,0;16,0;1000;1,0;3,0;0,0;2,0;column;1,0;True;True;True;0,934000015259;True;0,890999794006
AKB1996w;game;2017-03-02-09-05-40;12,0;17,0;1000;1,0;3,0;0,0;2,0;row;1,0;False;False;False;1,06699991226;True;0,664000034332
AKB1996w;game;2017-03-02-09-05-40;12,0;18,0;1000;3,0;1,0;2,0;0,0;row;1,0;False;False;True;1,7990000248;False;1,43499994278
AKB1996w;game;2017-03-02-09-05-40;12,0;19,0;1000;0,0;1,0;3,0;2,0;row;1,0;False;False;True;1,06699991226;False;1,39599990845
AKB1996w;game;2017-03-02-09-05-40;12,0;20,0;1000;0,0;1,0;2,0;3,0;column;1,0;True;True;True;1,23299980164;True;0,661999940872
AKB1996w;game;2017-03-02-09-05-40;12,0;21,0;1000;1,0;0,0;2,0;3,0;column;0,0;True;False;True;1,23199987411;True;1,46499991417
AKB1996w;game;2017-03-02-09-05-40;12,0;22,0;1000;3,0;0,0;1,0;2,0;column;1,0;False;True;False;2,02799987793;True;1,06100010872
AKB1996w;game;2017-03-02-09-05-40;12,0;23,0;1000;2,0;1,0;3,0;0,0;row;0,0;True;False;True;1,96600008011;True;1,17200016975
AKB1996w;game;2017-03-02-09-05-40;12,0;24,0;1000;3,0;0,0;1,0;2,0;column;0,0;True;False;True;0,766999959946;True;1,03200006485
AKB1996w;game;2017-03-02-09-05-40;12,0;25,0;1000;0,0;1,0;2,0;3,0;row;0,0;False;False;True;1,70000004768;False;0,699999809265
AKB1996w;game;2017-03-02-09-05-40;12,0;26,0;1000;0,0;2,0;1,0;3,0;column;1,0;True;True;True;1,20000004768;True;0,631999969482
AKB1996w;game;2017-03-02-09-05-40;12,0;27,0;1000;3,0;0,0;2,0;1,0;row;1,0;True;True;True;0,865999937057;True;1,4240000248
AKB1996w;game;2017-03-02-09-05-40;12,0;28,0;1000;3,0;0,0;2,0;1,0;column;1,0;False;False;False;1,867000103;True;0,698000192642
AKB1996w;game;2017-03-02-09-05-40;12,0;29,0;1000;1,0;3,0;0,0;2,0;row;0,0;False;False;False;1,36599993706;True;1,03999996185
AKB1996w;game;2017-03-02-09-05-40;12,0;30,0;1000;2,0;1,0;3,0;0,0;row;1,0;False;False;False;0,898999929428;True;0,963000059128
AKB1996w;game;2017-03-02-09-05-40;12,0;31,0;1000;2,0;0,0;1,0;3,0;row;0,0;False;False;False;1,33200001717;True;0,600000143051
AKB1996w;game;2017-03-02-09-05-40;12,0;32,0;1000;0,0;1,0;2,0;3,0;column;1,0;False;True;True;0,899999856949;False;0,662999868393
AKB1996w;game;2017-03-02-09-05-40;12,0;33,0;1000;1,0;2,0;0,0;3,0;column;0,0;True;False;True;0,866999864578;True;0,799999952316
AKB1996w;game;2017-03-02-09-05-40;12,0;34,0;1000;2,0;0,0;3,0;1,0;column;1,0;True;True;False;2,43300008774;False;1,35700011253
AKB1996w;game;2017-03-02-09-05-40;12,0;35,0;1000;0,0;2,0;3,0;1,0;column;0,0;True;True;True;1,36599993706;True;0,625
AKB1996w;game;2017-03-02-09-05-40;12,0;36,0;1000;0,0;3,0;2,0;1,0;column;1,0;False;True;False;1,10000014305;True;0,529000043869
AKB1996w;game;2017-03-02-09-05-40;12,0;37,0;1000;1,0;2,0;0,0;3,0;column;1,0;True;True;False;1,29999995232;False;1,25900006294
AKB1996w;game;2017-03-02-09-05-40;12,0;38,0;1000;0,0;1,0;3,0;2,0;row;1,0;True;False;False;2,03099989891;False;0,591000080109
AKB1996w;game;2017-03-02-09-05-40;12,0;39,0;1000;2,0;0,0;1,0;3,0;row;0,0;True;True;False;1,13300013542;False;1,36800003052
AKB1996w;game;2017-03-02-09-05-40;12,0;40,0;1000;3,0;0,0;2,0;1,0;column;0,0;False;False;False;1,93300008774;True;1,40400004387
AKB1996w;game;2017-03-02-09-05-40;12,0;41,0;1000;0,0;3,0;1,0;2,0;column;1,0;False;False;False;2,63100004196;True;0,996999979019
AKB1996w;game;2017-03-02-09-05-40;12,0;42,0;1000;2,0;0,0;3,0;1,0;column;0,0;True;True;True;1,23200011253;True;1,46799993515
AKB1996w;game;2017-03-02-09-05-40;12,0;43,0;1000;1,0;0,0;2,0;3,0;row;1,0;True;True;False;0,963999986649;False;1,36299991608
AKB1996w;game;2017-03-02-09-05-40;12,0;44,0;1000;2,0;3,0;1,0;0,0;row;1,0;False;True;False;1,36699986458;True;0,967000007629
AKB1996w;game;2017-03-02-09-05-40;12,0;45,0;1000;2,0;1,0;3,0;0,0;column;0,0;False;False;False;1,26699995995;True;0,696000099182
AKB1996w;game;2017-03-02-09-05-40;12,0;46,0;1000;0,0;2,0;1,0;3,0;column;1,0;False;False;False;1,2990000248;True;1,06100010872
AKB1996w;game;2017-03-02-09-05-40;12,0;47,0;1000;1,0;3,0;2,0;0,0;column;0,0;True;False;True;1,09800004959;True;1,02200007439
AKB1996w;game;2017-03-02-09-05-40;12,0;48,0;1000;2,0;0,0;1,0;3,0;row;1,0;True;False;False;1,7650001049;False;1,23099994659
