Observer;Condition;SessionID;Block;Trial;COA;Color0;Color1;Color2;Color3;Target;Which;Match;FlipComplimentary;Response;RT;Correct;OnsetDelay
SSF1993w;experiment;2017-02-27-09-00-55;1,0;1,0;-100;0,0;2,0;1,0;3,0;column;0,0;True;False;True;3,24900007248;True;0,583999872208
SSF1993w;experiment;2017-02-27-09-00-55;1,0;2,0;-100;0,0;1,0;3,0;2,0;row;1,0;True;False;False;1,48300004005;False;0,532999992371
SSF1993w;experiment;2017-02-27-09-00-55;1,0;3,0;-100;0,0;3,0;1,0;2,0;row;1,0;True;True;True;1,55000019073;True;1,06799983978
SSF1993w;experiment;2017-02-27-09-00-55;1,0;4,0;-100;1,0;2,0;3,0;0,0;row;1,0;False;False;False;1,18299984932;True;1,26400017738
SSF1993w;experiment;2017-02-27-09-00-55;1,0;5,0;-100;3,0;1,0;2,0;0,0;column;1,0;False;True;False;1,51499986649;True;1,26899981499
SSF1993w;experiment;2017-02-27-09-00-55;1,0;6,0;-100;3,0;0,0;1,0;2,0;column;1,0;False;True;False;1,382999897;True;0,664000034332
SSF1993w;experiment;2017-02-27-09-00-55;1,0;7,0;-100;1,0;0,0;3,0;2,0;column;1,0;False;False;False;1,65099978447;True;0,996999979019
SSF1993w;experiment;2017-02-27-09-00-55;1,0;8,0;-100;3,0;1,0;2,0;0,0;row;1,0;False;False;False;1,51699995995;True;0,532999992371
SSF1993w;experiment;2017-02-27-09-00-55;1,0;9,0;-100;1,0;3,0;0,0;2,0;column;1,0;True;False;False;1,15000009537;False;1,26099991798
SSF1993w;experiment;2017-02-27-09-00-55;1,0;10,0;-100;3,0;2,0;0,0;1,0;row;1,0;True;False;True;1,91599988937;True;0,605000019073
SSF1993w;experiment;2017-02-27-09-00-55;1,0;11,0;-100;1,0;0,0;2,0;3,0;row;1,0;False;True;False;1,78399991989;True;1,03299999237
SSF1993w;experiment;2017-02-27-09-00-55;1,0;12,0;-100;2,0;0,0;1,0;3,0;row;0,0;True;True;True;1,95000004768;True;1,43400001526
SSF1993w;experiment;2017-02-27-09-00-55;1,0;13,0;-100;0,0;3,0;2,0;1,0;column;1,0;True;False;False;2,71600008011;False;0,832999944687
SSF1993w;experiment;2017-02-27-09-00-55;1,0;14,0;-100;3,0;2,0;1,0;0,0;column;0,0;True;False;False;1,71600008011;False;1,12600016594
SSF1993w;experiment;2017-02-27-09-00-55;1,0;15,0;-100;0,0;1,0;2,0;3,0;row;0,0;False;False;False;1,98399996758;True;1,49199986458
SSF1993w;experiment;2017-02-27-09-00-55;1,0;16,0;-100;2,0;1,0;3,0;0,0;row;0,0;True;False;True;1,84999990463;True;0,9359998703
SSF1993w;experiment;2017-02-27-09-00-55;1,0;17,0;-100;2,0;0,0;3,0;1,0;row;0,0;False;False;False;1,71700000763;True;0,802000045776
SSF1993w;experiment;2017-02-27-09-00-55;1,0;18,0;-100;2,0;1,0;0,0;3,0;row;0,0;False;True;False;1,382999897;True;0,962000131607
SSF1993w;experiment;2017-02-27-09-00-55;1,0;19,0;-100;0,0;1,0;3,0;2,0;column;1,0;False;False;True;1,28300023079;False;0,567000150681
SSF1993w;experiment;2017-02-27-09-00-55;1,0;20,0;-100;1,0;2,0;0,0;3,0;row;0,0;True;False;True;1,31700015068;True;1,03400015831
SSF1993w;experiment;2017-02-27-09-00-55;1,0;21,0;-100;1,0;3,0;0,0;2,0;column;0,0;False;True;False;1,75;True;0,703999996185
SSF1993w;experiment;2017-02-27-09-00-55;1,0;22,0;-100;3,0;0,0;1,0;2,0;row;1,0;False;False;False;1,0490000248;True;0,868000030518
SSF1993w;experiment;2017-02-27-09-00-55;1,0;23,0;-100;0,0;2,0;3,0;1,0;row;1,0;True;False;False;1,51699995995;False;0,701999902725
SSF1993w;experiment;2017-02-27-09-00-55;1,0;24,0;-100;1,0;0,0;3,0;2,0;column;1,0;True;True;True;1,15000009537;True;1,23600006104
SSF1993w;experiment;2017-02-27-09-00-55;1,0;25,0;-100;0,0;1,0;2,0;3,0;column;0,0;True;True;True;2,01800012589;True;0,9359998703
SSF1993w;experiment;2017-02-27-09-00-55;1,0;26,0;-100;1,0;2,0;0,0;3,0;row;0,0;False;False;True;1,61699986458;False;0,867999792099
SSF1993w;experiment;2017-02-27-09-00-55;1,0;27,0;-100;1,0;0,0;3,0;2,0;column;0,0;False;False;True;1,28299999237;False;0,631999969482
SSF1993w;experiment;2017-02-27-09-00-55;1,0;28,0;-100;2,0;3,0;0,0;1,0;row;0,0;False;True;False;2,34999990463;True;0,958999872208
SSF1993w;experiment;2017-02-27-09-00-55;1,0;29,0;-100;3,0;1,0;2,0;0,0;column;0,0;True;False;True;1,75;True;1,16100001335
SSF1993w;experiment;2017-02-27-09-00-55;1,0;30,0;-100;2,0;1,0;3,0;0,0;row;1,0;False;True;False;1,25;True;0,936000108719
SSF1993w;experiment;2017-02-27-09-00-55;1,0;31,0;-100;2,0;0,0;1,0;3,0;column;0,0;True;False;True;2,25;True;0,900000095367
SSF1993w;experiment;2017-02-27-09-00-55;1,0;32,0;-100;0,0;3,0;2,0;1,0;row;1,0;False;True;True;2,11699986458;False;1,12699985504
SSF1993w;experiment;2017-02-27-09-00-55;1,0;33,0;-100;3,0;0,0;2,0;1,0;row;1,0;False;True;False;2,9470000267;True;1,33499979973
SSF1993w;experiment;2017-02-27-09-00-55;1,0;34,0;-100;2,0;1,0;0,0;3,0;column;1,0;True;False;True;1,14999985695;True;0,963999986649
SSF1993w;experiment;2017-02-27-09-00-55;1,0;35,0;-100;3,0;2,0;1,0;0,0;row;0,0;True;False;True;1,617000103;True;0,800999879837
SSF1993w;experiment;2017-02-27-09-00-55;1,0;36,0;-100;2,0;1,0;3,0;0,0;row;0,0;False;False;False;2,04999995232;True;1,23200011253
SSF1993w;experiment;2017-02-27-09-00-55;1,0;37,0;-100;3,0;0,0;1,0;2,0;row;0,0;False;True;False;3,48299980164;True;0,732000112534
SSF1993w;experiment;2017-02-27-09-00-55;1,0;38,0;-100;3,0;0,0;1,0;2,0;column;0,0;False;True;True;1,71599984169;False;1,09800004959
SSF1993w;experiment;2017-02-27-09-00-55;1,0;39,0;-100;2,0;3,0;0,0;1,0;column;1,0;False;False;False;1,91600012779;True;1,2990000248
SSF1993w;experiment;2017-02-27-09-00-55;1,0;40,0;-100;1,0;3,0;2,0;0,0;row;0,0;True;False;True;1,75;True;1,46900010109
SSF1993w;experiment;2017-02-27-09-00-55;1,0;41,0;-100;1,0;0,0;2,0;3,0;row;0,0;True;False;True;6,15000009537;True;1,46799993515
SSF1993w;experiment;2017-02-27-09-00-55;1,0;42,0;-100;3,0;1,0;0,0;2,0;row;1,0;True;True;True;1,38400006294;True;1,09399986267
SSF1993w;experiment;2017-02-27-09-00-55;1,0;43,0;-100;0,0;1,0;3,0;2,0;row;0,0;True;False;True;1,21700000763;True;0,766000032425
SSF1993w;experiment;2017-02-27-09-00-55;1,0;44,0;-100;3,0;1,0;2,0;0,0;row;1,0;True;False;True;1,34800004959;True;1,00099992752
SSF1993w;experiment;2017-02-27-09-00-55;1,0;45,0;-100;1,0;3,0;2,0;0,0;column;0,0;False;True;False;1,08200001717;True;0,826999902725
SSF1993w;experiment;2017-02-27-09-00-55;1,0;46,0;-100;3,0;0,0;2,0;1,0;column;1,0;True;False;True;1,81699991226;True;1,16899991035
SSF1993w;experiment;2017-02-27-09-00-55;1,0;47,0;-100;0,0;3,0;2,0;1,0;row;1,0;True;True;False;1,55100011826;False;0,869999885559
SSF1993w;experiment;2017-02-27-09-00-55;1,0;48,0;-100;1,0;3,0;0,0;2,0;row;0,0;False;True;True;2,88100004196;False;0,694999933243
SSF1993w;experiment;2017-02-27-09-00-55;2,0;1,0;100;2,0;3,0;0,0;1,0;row;1,0;True;True;False;1,43400001526;False;0,960000038147
SSF1993w;experiment;2017-02-27-09-00-55;2,0;2,0;100;2,0;3,0;0,0;1,0;column;0,0;True;False;False;2,26700019836;False;1,43899989128
SSF1993w;experiment;2017-02-27-09-00-55;2,0;3,0;100;3,0;1,0;0,0;2,0;row;1,0;False;True;False;2,43299984932;True;1,19999980927
SSF1993w;experiment;2017-02-27-09-00-55;2,0;4,0;100;0,0;2,0;1,0;3,0;column;0,0;False;False;True;2,03099989891;False;1,36099982262
SSF1993w;experiment;2017-02-27-09-00-55;2,0;5,0;100;2,0;0,0;3,0;1,0;row;0,0;True;True;False;1,80000019073;False;0,858999967575
SSF1993w;experiment;2017-02-27-09-00-55;2,0;6,0;100;3,0;2,0;0,0;1,0;row;1,0;True;False;False;3,56699991226;False;0,804999828339
SSF1993w;experiment;2017-02-27-09-00-55;2,0;7,0;100;1,0;2,0;3,0;0,0;row;1,0;True;True;True;1,53299999237;True;1,39899992943
SSF1993w;experiment;2017-02-27-09-00-55;2,0;8,0;100;1,0;0,0;3,0;2,0;row;1,0;True;False;True;2,59899997711;True;0,59500002861
SSF1993w;experiment;2017-02-27-09-00-55;2,0;9,0;100;0,0;2,0;3,0;1,0;column;1,0;True;False;False;1,53399991989;False;1,02900004387
SSF1993w;experiment;2017-02-27-09-00-55;2,0;10,0;100;3,0;0,0;1,0;2,0;column;1,0;True;True;True;2,0;True;0,52999997139
SSF1993w;experiment;2017-02-27-09-00-55;2,0;11,0;100;1,0;2,0;0,0;3,0;column;1,0;True;True;True;1,09899997711;True;0,802000045776
SSF1993w;experiment;2017-02-27-09-00-55;2,0;12,0;100;2,0;1,0;0,0;3,0;column;0,0;False;True;False;1,70000004768;True;1,13500022888
SSF1993w;experiment;2017-02-27-09-00-55;2,0;13,0;100;3,0;1,0;2,0;0,0;column;1,0;True;True;True;1,73099994659;True;1,34000015259
SSF1993w;experiment;2017-02-27-09-00-55;2,0;14,0;100;1,0;0,0;3,0;2,0;row;0,0;True;True;True;1,73300004005;True;0,725999832153
SSF1993w;experiment;2017-02-27-09-00-55;2,0;15,0;100;1,0;2,0;3,0;0,0;column;0,0;False;False;False;1,76699995995;True;0,928000211716
SSF1993w;experiment;2017-02-27-09-00-55;2,0;16,0;100;2,0;0,0;3,0;1,0;column;0,0;False;True;True;2,0;False;1,12599992752
SSF1993w;experiment;2017-02-27-09-00-55;2,0;17,0;100;0,0;1,0;2,0;3,0;column;1,0;True;True;True;3,29799985886;True;0,799999952316
SSF1993w;experiment;2017-02-27-09-00-55;2,0;18,0;100;3,0;2,0;1,0;0,0;column;1,0;False;False;False;1,86800003052;True;1,2650001049
SSF1993w;experiment;2017-02-27-09-00-55;2,0;19,0;100;0,0;3,0;2,0;1,0;row;0,0;True;True;True;3,66599988937;True;0,632999897003
SSF1993w;experiment;2017-02-27-09-00-55;2,0;20,0;100;2,0;0,0;3,0;1,0;row;0,0;False;False;False;1,86599993706;True;1,52300000191
SSF1993w;experiment;2017-02-27-09-00-55;2,0;21,0;100;0,0;3,0;1,0;2,0;row;0,0;False;False;False;1,73399996758;True;0,631999969482
SSF1993w;experiment;2017-02-27-09-00-55;2,0;22,0;100;1,0;0,0;3,0;2,0;column;1,0;True;True;True;1,40000009537;True;0,536000013351
SSF1993w;experiment;2017-02-27-09-00-55;2,0;23,0;100;3,0;1,0;0,0;2,0;row;0,0;True;True;True;1,63399982452;True;1,4960000515
SSF1993w;experiment;2017-02-27-09-00-55;2,0;24,0;100;1,0;2,0;3,0;0,0;column;1,0;True;True;True;1,7009999752;True;1,40099978447
SSF1993w;experiment;2017-02-27-09-00-55;2,0;25,0;100;0,0;3,0;2,0;1,0;column;1,0;False;False;False;1,5;True;0,69000005722
SSF1993w;experiment;2017-02-27-09-00-55;2,0;26,0;100;2,0;3,0;0,0;1,0;row;0,0;False;False;False;1,29999995232;True;0,531000137329
SSF1993w;experiment;2017-02-27-09-00-55;2,0;27,0;100;1,0;3,0;0,0;2,0;row;1,0;True;False;True;1,66600012779;True;1,29500007629
SSF1993w;experiment;2017-02-27-09-00-55;2,0;28,0;100;0,0;3,0;1,0;2,0;column;0,0;True;False;True;2,96700000763;True;0,532999992371
SSF1993w;experiment;2017-02-27-09-00-55;2,0;29,0;100;3,0;2,0;1,0;0,0;row;1,0;False;False;True;2,13300013542;False;0,62700009346
SSF1993w;experiment;2017-02-27-09-00-55;2,0;30,0;100;2,0;3,0;1,0;0,0;row;1,0;False;True;False;1,73299980164;True;1,23400020599
SSF1993w;experiment;2017-02-27-09-00-55;2,0;31,0;100;1,0;3,0;2,0;0,0;column;0,0;True;True;True;2,66599988937;True;1,35599994659
SSF1993w;experiment;2017-02-27-09-00-55;2,0;32,0;100;1,0;3,0;2,0;0,0;column;1,0;True;False;False;2,09999990463;False;1,06699991226
SSF1993w;experiment;2017-02-27-09-00-55;2,0;33,0;100;1,0;0,0;2,0;3,0;row;1,0;True;True;True;2,66700005531;True;1,30199980736
SSF1993w;experiment;2017-02-27-09-00-55;2,0;34,0;100;0,0;1,0;3,0;2,0;column;1,0;False;True;False;1,90000009537;True;1,06500005722
SSF1993w;experiment;2017-02-27-09-00-55;2,0;35,0;100;0,0;2,0;3,0;1,0;column;0,0;False;False;False;2,19999980927;True;0,560000181198
SSF1993w;experiment;2017-02-27-09-00-55;2,0;36,0;100;2,0;0,0;1,0;3,0;row;0,0;True;False;True;1,50099992752;True;1,5
SSF1993w;experiment;2017-02-27-09-00-55;2,0;37,0;100;0,0;1,0;3,0;2,0;row;1,0;False;False;True;3,90000009537;False;0,963999986649
SSF1993w;experiment;2017-02-27-09-00-55;2,0;38,0;100;1,0;2,0;3,0;0,0;column;0,0;True;True;False;1,76699995995;False;1,09899997711
SSF1993w;experiment;2017-02-27-09-00-55;2,0;39,0;100;2,0;0,0;3,0;1,0;column;0,0;True;True;False;1,632999897;False;1,30500006676
SSF1993w;experiment;2017-02-27-09-00-55;2,0;40,0;100;1,0;0,0;3,0;2,0;row;1,0;False;False;False;2,53299999237;True;0,589999914169
SSF1993w;experiment;2017-02-27-09-00-55;2,0;41,0;100;1,0;3,0;0,0;2,0;row;1,0;False;True;True;1,56700015068;False;0,735000133514
SSF1993w;experiment;2017-02-27-09-00-55;2,0;42,0;100;1,0;0,0;3,0;2,0;row;0,0;False;False;False;2,90100002289;True;1,02799987793
SSF1993w;experiment;2017-02-27-09-00-55;2,0;43,0;100;3,0;1,0;0,0;2,0;column;0,0;True;True;True;5,79800009727;True;1,26099991798
SSF1993w;experiment;2017-02-27-09-00-55;2,0;44,0;100;3,0;1,0;0,0;2,0;row;0,0;False;True;False;1,33299994469;True;0,601000070572
SSF1993w;experiment;2017-02-27-09-00-55;2,0;45,0;100;0,0;2,0;3,0;1,0;column;0,0;True;True;True;3,30100011826;True;0,760999917984
SSF1993w;experiment;2017-02-27-09-00-55;2,0;46,0;100;1,0;0,0;2,0;3,0;column;0,0;False;False;False;1,39999985695;True;1,02300000191
SSF1993w;experiment;2017-02-27-09-00-55;2,0;47,0;100;2,0;3,0;0,0;1,0;column;1,0;True;True;True;1,5;True;1,257999897
SSF1993w;experiment;2017-02-27-09-00-55;2,0;48,0;100;0,0;2,0;1,0;3,0;column;1,0;False;True;False;2,09999990463;True;0,730000019073
SSF1993w;experiment;2017-02-27-09-00-55;3,0;1,0;1000;2,0;3,0;1,0;0,0;row;0,0;True;False;True;1,56600022316;True;0,700999975204
SSF1993w;experiment;2017-02-27-09-00-55;3,0;2,0;1000;1,0;0,0;2,0;3,0;row;1,0;False;False;False;1,39999985695;True;0,964999914169
SSF1993w;experiment;2017-02-27-09-00-55;3,0;3,0;1000;2,0;0,0;3,0;1,0;column;1,0;True;False;False;3,09999990463;False;0,759999990463
SSF1993w;experiment;2017-02-27-09-00-55;3,0;4,0;1000;3,0;2,0;0,0;1,0;column;1,0;True;True;True;2,40000009537;True;1,0
SSF1993w;experiment;2017-02-27-09-00-55;3,0;5,0;1000;2,0;0,0;1,0;3,0;column;1,0;False;True;True;2,83499979973;False;0,859999895096
SSF1993w;experiment;2017-02-27-09-00-55;3,0;6,0;1000;0,0;1,0;2,0;3,0;column;0,0;True;False;True;2,36600017548;True;1,35899996758
SSF1993w;experiment;2017-02-27-09-00-55;3,0;7,0;1000;3,0;1,0;0,0;2,0;row;0,0;True;True;True;1,66700005531;True;1,03099989891
SSF1993w;experiment;2017-02-27-09-00-55;3,0;8,0;1000;0,0;3,0;2,0;1,0;column;0,0;False;True;True;1,26600003242;False;0,657999992371
SSF1993w;experiment;2017-02-27-09-00-55;3,0;9,0;1000;1,0;2,0;3,0;0,0;column;0,0;True;False;True;3,132999897;True;1,26999998093
SSF1993w;experiment;2017-02-27-09-00-55;3,0;10,0;1000;1,0;3,0;0,0;2,0;row;0,0;False;True;False;1,36600017548;True;0,59500002861
SSF1993w;experiment;2017-02-27-09-00-55;3,0;11,0;1000;2,0;3,0;0,0;1,0;row;1,0;True;False;True;1,53100013733;True;1,16700005531
SSF1993w;experiment;2017-02-27-09-00-55;3,0;12,0;1000;0,0;1,0;3,0;2,0;row;0,0;False;False;False;2,867000103;True;0,628000020981
SSF1993w;experiment;2017-02-27-09-00-55;3,0;13,0;1000;3,0;2,0;1,0;0,0;column;0,0;True;True;False;1,86599993706;False;0,932000160217
SSF1993w;experiment;2017-02-27-09-00-55;3,0;14,0;1000;1,0;0,0;2,0;3,0;column;1,0;True;True;True;1,49900007248;True;1,32299995422
SSF1993w;experiment;2017-02-27-09-00-55;3,0;15,0;1000;3,0;2,0;0,0;1,0;column;0,0;True;False;True;3,0;True;1,26499986649
SSF1993w;experiment;2017-02-27-09-00-55;3,0;16,0;1000;2,0;0,0;1,0;3,0;row;0,0;False;True;False;1,46600008011;True;1,22799992561
SSF1993w;experiment;2017-02-27-09-00-55;3,0;17,0;1000;1,0;3,0;0,0;2,0;column;1,0;False;False;False;1,83300018311;True;1,26799988747
SSF1993w;experiment;2017-02-27-09-00-55;3,0;18,0;1000;1,0;2,0;3,0;0,0;row;1,0;True;True;True;4,4319999218;True;1,43099999428
SSF1993w;experiment;2017-02-27-09-00-55;3,0;19,0;1000;1,0;3,0;0,0;2,0;row;0,0;True;True;True;1,80100011826;True;1,39800000191
SSF1993w;experiment;2017-02-27-09-00-55;3,0;20,0;1000;1,0;2,0;0,0;3,0;row;0,0;False;False;False;1,76699995995;True;0,566999912262
SSF1993w;experiment;2017-02-27-09-00-55;3,0;21,0;1000;1,0;0,0;2,0;3,0;row;0,0;True;False;True;2,36599993706;True;0,892999887466
SSF1993w;experiment;2017-02-27-09-00-55;3,0;22,0;1000;1,0;2,0;3,0;0,0;column;1,0;True;True;True;1,0;True;0,963999986649
SSF1993w;experiment;2017-02-27-09-00-55;3,0;23,0;1000;1,0;0,0;2,0;3,0;column;0,0;True;False;True;2,5;True;0,604000091553
SSF1993w;experiment;2017-02-27-09-00-55;3,0;24,0;1000;1,0;0,0;3,0;2,0;column;0,0;False;True;False;1,79999995232;True;1,50300002098
SSF1993w;experiment;2017-02-27-09-00-55;3,0;25,0;1000;3,0;0,0;2,0;1,0;row;1,0;False;True;False;3,632999897;True;1,46300005913
SSF1993w;experiment;2017-02-27-09-00-55;3,0;26,0;1000;1,0;0,0;2,0;3,0;column;1,0;False;False;False;1,70000004768;True;0,523999929428
SSF1993w;experiment;2017-02-27-09-00-55;3,0;27,0;1000;0,0;2,0;1,0;3,0;row;1,0;False;False;True;1,76699995995;False;0,664999961853
SSF1993w;experiment;2017-02-27-09-00-55;3,0;28,0;1000;2,0;1,0;0,0;3,0;column;1,0;False;True;False;1,73300004005;True;0,664999961853
SSF1993w;experiment;2017-02-27-09-00-55;3,0;29,0;1000;0,0;3,0;1,0;2,0;column;0,0;False;False;True;1,63300013542;False;0,90299987793
SSF1993w;experiment;2017-02-27-09-00-55;3,0;30,0;1000;2,0;0,0;3,0;1,0;column;1,0;False;True;False;2,09999990463;True;0,766999959946
SSF1993w;experiment;2017-02-27-09-00-55;3,0;31,0;1000;2,0;0,0;3,0;1,0;column;0,0;True;True;False;4,03299999237;False;0,888999938965
SSF1993w;experiment;2017-02-27-09-00-55;3,0;32,0;1000;0,0;3,0;2,0;1,0;row;1,0;False;False;True;1,89899992943;False;0,570000171661
SSF1993w;experiment;2017-02-27-09-00-55;3,0;33,0;1000;1,0;3,0;2,0;0,0;column;1,0;False;True;False;1,16700005531;True;1,03200006485
SSF1993w;experiment;2017-02-27-09-00-55;3,0;34,0;1000;2,0;0,0;3,0;1,0;column;0,0;False;False;False;3,79999995232;True;1,19999980927
SSF1993w;experiment;2017-02-27-09-00-55;3,0;35,0;1000;0,0;1,0;3,0;2,0;column;0,0;True;False;True;1,46700000763;True;1,42899990082
SSF1993w;experiment;2017-02-27-09-00-55;3,0;36,0;1000;3,0;0,0;1,0;2,0;column;1,0;True;True;True;2,13300013542;True;1,09799981117
SSF1993w;experiment;2017-02-27-09-00-55;3,0;37,0;1000;2,0;0,0;3,0;1,0;row;0,0;False;False;False;3,0;True;0,635999917984
SSF1993w;experiment;2017-02-27-09-00-55;3,0;38,0;1000;3,0;0,0;2,0;1,0;row;1,0;True;False;True;1,53299999237;True;0,726999998093
SSF1993w;experiment;2017-02-27-09-00-55;3,0;39,0;1000;2,0;3,0;1,0;0,0;column;0,0;False;False;True;3,73500013351;False;1,06399989128
SSF1993w;experiment;2017-02-27-09-00-55;3,0;40,0;1000;3,0;1,0;2,0;0,0;column;0,0;True;True;False;4,16600012779;False;1,09200000763
SSF1993w;experiment;2017-02-27-09-00-55;3,0;41,0;1000;0,0;3,0;2,0;1,0;row;0,0;True;True;True;1,73399996758;True;0,891999959946
SSF1993w;experiment;2017-02-27-09-00-55;3,0;42,0;1000;0,0;3,0;2,0;1,0;column;1,0;True;False;False;1,56599998474;False;1,00600004196
SSF1993w;experiment;2017-02-27-09-00-55;3,0;43,0;1000;3,0;2,0;0,0;1,0;row;0,0;True;False;True;2,36600017548;True;1,46199989319
SSF1993w;experiment;2017-02-27-09-00-55;3,0;44,0;1000;0,0;3,0;1,0;2,0;column;1,0;True;False;True;2,13400006294;True;1,3220000267
SSF1993w;experiment;2017-02-27-09-00-55;3,0;45,0;1000;1,0;2,0;0,0;3,0;row;1,0;True;True;True;2,39999985695;True;1,33299994469
SSF1993w;experiment;2017-02-27-09-00-55;3,0;46,0;1000;1,0;2,0;3,0;0,0;row;0,0;True;True;True;3,80000019073;True;1,26300001144
SSF1993w;experiment;2017-02-27-09-00-55;3,0;47,0;1000;1,0;2,0;0,0;3,0;column;1,0;False;True;False;5,09999990463;True;1,43099999428
SSF1993w;experiment;2017-02-27-09-00-55;3,0;48,0;1000;2,0;3,0;0,0;1,0;row;0,0;True;True;True;1,5;True;0,960999965668
SSF1993w;experiment;2017-02-27-09-00-55;4,0;1,0;100;0,0;3,0;2,0;1,0;row;1,0;True;True;True;2,03199982643;True;1,47400021553
SSF1993w;experiment;2017-02-27-09-00-55;4,0;2,0;100;2,0;1,0;0,0;3,0;column;0,0;True;True;False;2,46700000763;False;1,20000004768
SSF1993w;experiment;2017-02-27-09-00-55;4,0;3,0;100;2,0;3,0;0,0;1,0;column;1,0;False;False;False;2,66699981689;True;1,03100013733
SSF1993w;experiment;2017-02-27-09-00-55;4,0;4,0;100;1,0;0,0;3,0;2,0;column;0,0;False;False;False;2,83299994469;True;0,55999994278
SSF1993w;experiment;2017-02-27-09-00-55;4,0;5,0;100;1,0;3,0;2,0;0,0;row;1,0;False;False;True;4,7990000248;False;1,32500004768
SSF1993w;experiment;2017-02-27-09-00-55;4,0;6,0;100;0,0;2,0;1,0;3,0;column;0,0;True;True;True;2,43400001526;True;1,33599996567
SSF1993w;experiment;2017-02-27-09-00-55;4,0;7,0;100;3,0;0,0;1,0;2,0;column;0,0;True;False;True;1,46700000763;True;1,22499990463
SSF1993w;experiment;2017-02-27-09-00-55;4,0;8,0;100;1,0;2,0;0,0;3,0;row;1,0;True;True;True;2,13199996948;True;1,4240000248
SSF1993w;experiment;2017-02-27-09-00-55;4,0;9,0;100;2,0;1,0;0,0;3,0;row;0,0;True;False;True;2,59999990463;True;1,03299999237
SSF1993w;experiment;2017-02-27-09-00-55;4,0;10,0;100;0,0;1,0;3,0;2,0;column;0,0;False;True;False;1,89999985695;True;1,46000003815
SSF1993w;experiment;2017-02-27-09-00-55;4,0;11,0;100;3,0;2,0;0,0;1,0;row;0,0;True;True;True;2,69800019264;True;1,33299994469
SSF1993w;experiment;2017-02-27-09-00-55;4,0;12,0;100;1,0;3,0;2,0;0,0;row;0,0;False;False;False;2,13399982452;True;0,53400015831
SSF1993w;experiment;2017-02-27-09-00-55;4,0;13,0;100;3,0;2,0;1,0;0,0;row;0,0;False;True;False;1,5;True;1,49000000954
SSF1993w;experiment;2017-02-27-09-00-55;4,0;14,0;100;0,0;3,0;1,0;2,0;row;1,0;False;True;False;1,39899992943;True;0,559000015259
SSF1993w;experiment;2017-02-27-09-00-55;4,0;15,0;100;3,0;0,0;2,0;1,0;column;0,0;False;True;True;1,06699991226;False;0,835000038147
SSF1993w;experiment;2017-02-27-09-00-55;4,0;16,0;100;1,0;0,0;2,0;3,0;row;1,0;False;False;False;2,03299999237;True;0,735000133514
SSF1993w;experiment;2017-02-27-09-00-55;4,0;17,0;100;1,0;0,0;2,0;3,0;row;0,0;False;False;False;2,73299980164;True;1,09800004959
SSF1993w;experiment;2017-02-27-09-00-55;4,0;18,0;100;3,0;0,0;1,0;2,0;column;0,0;False;False;False;2,46700000763;True;1,10599994659
SSF1993w;experiment;2017-02-27-09-00-55;4,0;19,0;100;3,0;2,0;0,0;1,0;column;0,0;True;False;True;2,96600008011;True;0,671000003815
SSF1993w;experiment;2017-02-27-09-00-55;4,0;20,0;100;3,0;2,0;0,0;1,0;column;1,0;False;False;True;3,39999985695;False;0,591000080109
SSF1993w;experiment;2017-02-27-09-00-55;4,0;21,0;100;0,0;2,0;3,0;1,0;row;0,0;False;True;True;3,96700000763;False;1,02300000191
SSF1993w;experiment;2017-02-27-09-00-55;4,0;22,0;100;2,0;0,0;3,0;1,0;column;1,0;True;False;False;2,63400006294;False;0,928999900818
SSF1993w;experiment;2017-02-27-09-00-55;4,0;23,0;100;1,0;2,0;3,0;0,0;row;0,0;False;True;False;2,5;True;1,4319999218
SSF1993w;experiment;2017-02-27-09-00-55;4,0;24,0;100;3,0;0,0;1,0;2,0;row;1,0;True;False;False;3,49899983406;False;0,665999889374
SSF1993w;experiment;2017-02-27-09-00-55;4,0;25,0;100;2,0;3,0;1,0;0,0;column;1,0;False;True;False;2,26499986649;True;1,32899999619
SSF1993w;experiment;2017-02-27-09-00-55;4,0;26,0;100;2,0;3,0;0,0;1,0;row;0,0;True;False;True;1,46500015259;True;1,16700005531
SSF1993w;experiment;2017-02-27-09-00-55;4,0;27,0;100;3,0;2,0;0,0;1,0;row;0,0;False;False;False;1,29999995232;True;0,893000125885
SSF1993w;experiment;2017-02-27-09-00-55;4,0;28,0;100;1,0;0,0;2,0;3,0;column;1,0;True;True;True;1,39999985695;True;1,43600010872
SSF1993w;experiment;2017-02-27-09-00-55;4,0;29,0;100;3,0;1,0;0,0;2,0;row;1,0;True;False;False;2,33400011063;False;0,732999801636
SSF1993w;experiment;2017-02-27-09-00-55;4,0;30,0;100;1,0;0,0;2,0;3,0;row;0,0;True;True;True;2,59899997711;True;0,695999860764
SSF1993w;experiment;2017-02-27-09-00-55;4,0;31,0;100;0,0;1,0;3,0;2,0;row;0,0;True;False;True;1,367000103;True;0,568000078201
SSF1993w;experiment;2017-02-27-09-00-55;4,0;32,0;100;2,0;0,0;3,0;1,0;row;1,0;False;True;False;1,23399996758;True;0,662999868393
SSF1993w;experiment;2017-02-27-09-00-55;4,0;33,0;100;3,0;1,0;2,0;0,0;column;1,0;False;True;False;2,00099992752;True;0,664999961853
SSF1993w;experiment;2017-02-27-09-00-55;4,0;34,0;100;3,0;0,0;2,0;1,0;row;1,0;False;True;False;1,7990000248;True;0,967000007629
SSF1993w;experiment;2017-02-27-09-00-55;4,0;35,0;100;3,0;0,0;1,0;2,0;row;1,0;False;True;False;1,33299994469;True;1,2349998951
SSF1993w;experiment;2017-02-27-09-00-55;4,0;36,0;100;0,0;1,0;2,0;3,0;row;1,0;False;False;False;2,16700005531;True;0,692999839783
SSF1993w;experiment;2017-02-27-09-00-55;4,0;37,0;100;1,0;3,0;2,0;0,0;column;1,0;False;False;True;4,3109998703;False;0,799999952316
SSF1993w;experiment;2017-02-27-09-00-55;4,0;38,0;100;0,0;3,0;1,0;2,0;column;1,0;False;False;False;1,7990000248;True;0,558000087738
SSF1993w;experiment;2017-02-27-09-00-55;4,0;39,0;100;2,0;1,0;3,0;0,0;column;1,0;True;False;True;2,73399996758;True;1,16799998283
SSF1993w;experiment;2017-02-27-09-00-55;4,0;40,0;100;0,0;3,0;1,0;2,0;column;0,0;False;True;False;2,13300013542;True;1,40000009537
SSF1993w;experiment;2017-02-27-09-00-55;4,0;41,0;100;1,0;2,0;3,0;0,0;row;1,0;False;False;False;1,23200011253;True;0,700999975204
SSF1993w;experiment;2017-02-27-09-00-55;4,0;42,0;100;3,0;0,0;2,0;1,0;row;0,0;True;True;False;2,43200016022;False;0,55999994278
SSF1993w;experiment;2017-02-27-09-00-55;4,0;43,0;100;2,0;0,0;3,0;1,0;column;1,0;False;False;True;2,16599988937;False;0,559000015259
SSF1993w;experiment;2017-02-27-09-00-55;4,0;44,0;100;0,0;2,0;3,0;1,0;row;1,0;True;False;True;2,13400006294;True;1,45799994469
SSF1993w;experiment;2017-02-27-09-00-55;4,0;45,0;100;2,0;1,0;0,0;3,0;column;1,0;False;False;False;1,93400001526;True;0,963999986649
SSF1993w;experiment;2017-02-27-09-00-55;4,0;46,0;100;2,0;1,0;0,0;3,0;column;1,0;True;False;True;2,79999995232;True;1,17100000381
SSF1993w;experiment;2017-02-27-09-00-55;4,0;47,0;100;2,0;3,0;1,0;0,0;column;0,0;True;True;False;2,96799993515;False;0,734000205994
SSF1993w;experiment;2017-02-27-09-00-55;4,0;48,0;100;1,0;2,0;3,0;0,0;column;1,0;False;False;False;1,73399996758;True;0,93499994278
SSF1993w;experiment;2017-02-27-09-00-55;5,0;1,0;1000;3,0;2,0;0,0;1,0;column;1,0;False;False;False;2,16700005531;True;1,14300012589
SSF1993w;experiment;2017-02-27-09-00-55;5,0;2,0;1000;3,0;2,0;0,0;1,0;row;1,0;True;True;True;1,96600008011;True;0,797000169754
SSF1993w;experiment;2017-02-27-09-00-55;5,0;3,0;1000;3,0;1,0;0,0;2,0;column;0,0;False;False;False;3,20000004768;True;1,02999997139
SSF1993w;experiment;2017-02-27-09-00-55;5,0;4,0;1000;3,0;2,0;1,0;0,0;column;1,0;False;True;False;3,06700015068;True;0,820999860764
SSF1993w;experiment;2017-02-27-09-00-55;5,0;5,0;1000;2,0;3,0;1,0;0,0;column;0,0;True;True;True;2,69899988174;True;1,09700012207
SSF1993w;experiment;2017-02-27-09-00-55;5,0;6,0;1000;1,0;3,0;2,0;0,0;column;0,0;False;False;False;4,60099983215;True;1,19799995422
SSF1993w;experiment;2017-02-27-09-00-55;5,0;7,0;1000;0,0;3,0;2,0;1,0;column;0,0;True;False;False;2,79999995232;False;0,930999994278
SSF1993w;experiment;2017-02-27-09-00-55;5,0;8,0;1000;3,0;0,0;2,0;1,0;column;1,0;True;False;False;2,5;False;0,999000072479
SSF1993w;experiment;2017-02-27-09-00-55;5,0;9,0;1000;0,0;1,0;2,0;3,0;row;0,0;True;True;True;2,26699995995;True;0,928999900818
SSF1993w;experiment;2017-02-27-09-00-55;5,0;10,0;1000;3,0;1,0;2,0;0,0;row;0,0;False;True;False;1,10000014305;True;1,06500005722
SSF1993w;experiment;2017-02-27-09-00-55;5,0;11,0;1000;2,0;3,0;0,0;1,0;row;0,0;False;True;False;4,26399993896;True;1,50500011444
SSF1993w;experiment;2017-02-27-09-00-55;5,0;12,0;1000;0,0;2,0;3,0;1,0;column;1,0;False;False;True;2,03299999237;False;0,732000112534
SSF1993w;experiment;2017-02-27-09-00-55;5,0;13,0;1000;3,0;0,0;2,0;1,0;column;0,0;False;True;False;1,69899988174;True;1,19199991226
SSF1993w;experiment;2017-02-27-09-00-55;5,0;14,0;1000;0,0;3,0;1,0;2,0;row;1,0;True;True;True;1,60000014305;True;0,568000078201
SSF1993w;experiment;2017-02-27-09-00-55;5,0;15,0;1000;2,0;1,0;0,0;3,0;column;0,0;False;False;False;1,76600003242;True;1,40400004387
SSF1993w;experiment;2017-02-27-09-00-55;5,0;16,0;1000;2,0;1,0;3,0;0,0;row;1,0;True;False;True;2,26699995995;True;1,32500004768
SSF1993w;experiment;2017-02-27-09-00-55;5,0;17,0;1000;3,0;1,0;2,0;0,0;column;1,0;True;True;True;2,80100011826;True;1,12999987602
SSF1993w;experiment;2017-02-27-09-00-55;5,0;18,0;1000;1,0;3,0;0,0;2,0;column;1,0;True;False;False;2,33300018311;False;0,703000068665
SSF1993w;experiment;2017-02-27-09-00-55;5,0;19,0;1000;1,0;0,0;2,0;3,0;column;0,0;False;False;False;2,83299994469;True;0,726999998093
SSF1993w;experiment;2017-02-27-09-00-55;5,0;20,0;1000;2,0;0,0;1,0;3,0;column;0,0;True;True;True;1,20000004768;True;1,13000011444
SSF1993w;experiment;2017-02-27-09-00-55;5,0;21,0;1000;1,0;0,0;3,0;2,0;row;1,0;True;True;True;2,66699981689;True;0,834000110626
SSF1993w;experiment;2017-02-27-09-00-55;5,0;22,0;1000;3,0;2,0;1,0;0,0;row;1,0;True;True;True;3,89499998093;True;0,802000045776
SSF1993w;experiment;2017-02-27-09-00-55;5,0;23,0;1000;3,0;2,0;1,0;0,0;row;0,0;True;False;True;2,30099987984;True;1,26400017738
SSF1993w;experiment;2017-02-27-09-00-55;5,0;24,0;1000;2,0;1,0;3,0;0,0;column;0,0;False;True;False;1,36699986458;True;0,663999795914
SSF1993w;experiment;2017-02-27-09-00-55;5,0;25,0;1000;0,0;2,0;1,0;3,0;row;1,0;True;True;True;1,09999990463;True;1,33400011063
SSF1993w;experiment;2017-02-27-09-00-55;5,0;26,0;1000;0,0;3,0;2,0;1,0;row;1,0;True;False;True;1,60100007057;True;1,33400011063
SSF1993w;experiment;2017-02-27-09-00-55;5,0;27,0;1000;3,0;0,0;1,0;2,0;row;1,0;False;True;False;1,43299984932;True;0,832000017166
SSF1993w;experiment;2017-02-27-09-00-55;5,0;28,0;1000;1,0;2,0;3,0;0,0;row;1,0;False;False;True;2,46599984169;False;0,958999872208
SSF1993w;experiment;2017-02-27-09-00-55;5,0;29,0;1000;0,0;2,0;3,0;1,0;row;0,0;False;True;False;1,06599998474;True;0,996000051498
SSF1993w;experiment;2017-02-27-09-00-55;5,0;30,0;1000;2,0;3,0;0,0;1,0;column;0,0;True;True;True;0,933000087738;True;0,94000005722
SSF1993w;experiment;2017-02-27-09-00-55;5,0;31,0;1000;2,0;1,0;0,0;3,0;column;1,0;True;True;True;2,16599988937;True;0,766000032425
SSF1993w;experiment;2017-02-27-09-00-55;5,0;32,0;1000;2,0;0,0;3,0;1,0;row;1,0;False;False;True;1,80000019073;False;1,29999995232
SSF1993w;experiment;2017-02-27-09-00-55;5,0;33,0;1000;3,0;2,0;0,0;1,0;row;0,0;False;False;True;1,56700015068;False;1,40400004387
SSF1993w;experiment;2017-02-27-09-00-55;5,0;34,0;1000;0,0;1,0;2,0;3,0;column;1,0;False;True;True;2,66700005531;False;1,46300005913
SSF1993w;experiment;2017-02-27-09-00-55;5,0;35,0;1000;1,0;3,0;2,0;0,0;column;1,0;True;False;True;2,10000014305;True;1,05999994278
SSF1993w;experiment;2017-02-27-09-00-55;5,0;36,0;1000;2,0;1,0;3,0;0,0;column;1,0;False;False;True;1,79799985886;False;0,799999952316
SSF1993w;experiment;2017-02-27-09-00-55;5,0;37,0;1000;0,0;3,0;1,0;2,0;row;0,0;True;True;True;2,76499986649;True;1,44099998474
SSF1993w;experiment;2017-02-27-09-00-55;5,0;38,0;1000;2,0;3,0;1,0;0,0;column;1,0;True;True;False;3,20000004768;False;0,756999969482
SSF1993w;experiment;2017-02-27-09-00-55;5,0;39,0;1000;1,0;0,0;2,0;3,0;row;1,0;True;True;True;1,76699995995;True;0,525000095367
SSF1993w;experiment;2017-02-27-09-00-55;5,0;40,0;1000;2,0;0,0;1,0;3,0;row;0,0;True;False;False;3,06599998474;False;1,0609998703
SSF1993w;experiment;2017-02-27-09-00-55;5,0;41,0;1000;2,0;0,0;3,0;1,0;row;0,0;True;False;True;1,36599993706;True;1,10199999809
SSF1993w;experiment;2017-02-27-09-00-55;5,0;42,0;1000;3,0;1,0;0,0;2,0;column;1,0;False;False;False;1,4319999218;True;0,664999961853
SSF1993w;experiment;2017-02-27-09-00-55;5,0;43,0;1000;1,0;0,0;3,0;2,0;column;1,0;True;False;True;1,867000103;True;1,12600016594
SSF1993w;experiment;2017-02-27-09-00-55;5,0;44,0;1000;0,0;2,0;3,0;1,0;row;0,0;True;False;True;1,20000004768;True;0,531999826431
SSF1993w;experiment;2017-02-27-09-00-55;5,0;45,0;1000;2,0;1,0;0,0;3,0;row;0,0;True;True;False;2,23299980164;False;0,692999839783
SSF1993w;experiment;2017-02-27-09-00-55;5,0;46,0;1000;3,0;0,0;1,0;2,0;column;0,0;False;True;False;2,23300004005;True;0,632999897003
SSF1993w;experiment;2017-02-27-09-00-55;5,0;47,0;1000;0,0;1,0;2,0;3,0;column;1,0;True;True;False;1,7009999752;False;0,565999984741
SSF1993w;experiment;2017-02-27-09-00-55;5,0;48,0;1000;3,0;2,0;1,0;0,0;row;0,0;False;False;True;1,70000004768;False;0,97000002861
SSF1993w;experiment;2017-02-27-09-00-55;6,0;1,0;-100;2,0;1,0;0,0;3,0;row;1,0;False;False;False;1,68299984932;True;0,630000114441
SSF1993w;experiment;2017-02-27-09-00-55;6,0;2,0;-100;3,0;0,0;2,0;1,0;row;0,0;True;True;True;1,88300013542;True;0,598999977112
SSF1993w;experiment;2017-02-27-09-00-55;6,0;3,0;-100;3,0;2,0;0,0;1,0;column;0,0;False;False;False;1,51600003242;True;0,930999994278
SSF1993w;experiment;2017-02-27-09-00-55;6,0;4,0;-100;1,0;2,0;0,0;3,0;column;1,0;False;False;True;1,54999995232;False;0,503999948502
SSF1993w;experiment;2017-02-27-09-00-55;6,0;5,0;-100;2,0;0,0;1,0;3,0;column;0,0;False;False;True;1,51699995995;False;1,25600004196
SSF1993w;experiment;2017-02-27-09-00-55;6,0;6,0;-100;0,0;3,0;2,0;1,0;column;0,0;False;True;False;1,51600003242;True;1,2619998455
SSF1993w;experiment;2017-02-27-09-00-55;6,0;7,0;-100;3,0;2,0;0,0;1,0;row;0,0;False;False;False;1,71799993515;True;1,46600008011
SSF1993w;experiment;2017-02-27-09-00-55;6,0;8,0;-100;1,0;2,0;3,0;0,0;column;0,0;True;False;True;1,74799990654;True;1,36600017548
SSF1993w;experiment;2017-02-27-09-00-55;6,0;9,0;-100;2,0;3,0;1,0;0,0;row;0,0;False;False;False;2,34999990463;True;1,06900000572
SSF1993w;experiment;2017-02-27-09-00-55;6,0;10,0;-100;1,0;3,0;0,0;2,0;row;1,0;True;True;False;1,81699991226;False;1,33399987221
SSF1993w;experiment;2017-02-27-09-00-55;6,0;11,0;-100;0,0;1,0;3,0;2,0;column;0,0;False;False;False;5,28200006485;True;1,02600002289
SSF1993w;experiment;2017-02-27-09-00-55;6,0;12,0;-100;2,0;3,0;1,0;0,0;row;1,0;True;False;False;2,61600017548;False;0,799999952316
SSF1993w;experiment;2017-02-27-09-00-55;6,0;13,0;-100;3,0;2,0;1,0;0,0;row;1,0;True;True;True;1,41499996185;True;0,732000112534
SSF1993w;experiment;2017-02-27-09-00-55;6,0;14,0;-100;1,0;0,0;2,0;3,0;column;1,0;True;False;True;2,08400011063;True;1,06900000572
SSF1993w;experiment;2017-02-27-09-00-55;6,0;15,0;-100;2,0;3,0;1,0;0,0;column;0,0;False;True;True;2,55099987984;False;1,0600001812
SSF1993w;experiment;2017-02-27-09-00-55;6,0;16,0;-100;1,0;3,0;2,0;0,0;column;0,0;True;True;True;2,14899992943;True;1,33399987221
SSF1993w;experiment;2017-02-27-09-00-55;6,0;17,0;-100;3,0;2,0;0,0;1,0;row;1,0;False;False;False;4,25100016594;True;0,658999919891
SSF1993w;experiment;2017-02-27-09-00-55;6,0;18,0;-100;0,0;2,0;1,0;3,0;column;1,0;True;True;True;1,98099994659;True;1,40199995041
SSF1993w;experiment;2017-02-27-09-00-55;6,0;19,0;-100;0,0;3,0;1,0;2,0;row;0,0;True;False;True;2,38400006294;True;1,23399996758
SSF1993w;experiment;2017-02-27-09-00-55;6,0;20,0;-100;0,0;2,0;3,0;1,0;column;0,0;False;False;False;2,31500005722;True;0,571000099182
SSF1993w;experiment;2017-02-27-09-00-55;6,0;21,0;-100;3,0;2,0;1,0;0,0;row;0,0;False;False;False;2,18400001526;True;0,768000125885
SSF1993w;experiment;2017-02-27-09-00-55;6,0;22,0;-100;3,0;0,0;2,0;1,0;row;1,0;True;False;True;1,64899992943;True;0,871999979019
SSF1993w;experiment;2017-02-27-09-00-55;6,0;23,0;-100;1,0;0,0;3,0;2,0;row;0,0;True;True;True;2,14999985695;True;1,36899995804
SSF1993w;experiment;2017-02-27-09-00-55;6,0;24,0;-100;3,0;0,0;1,0;2,0;row;0,0;True;False;True;1,71800017357;True;0,924999952316
SSF1993w;experiment;2017-02-27-09-00-55;6,0;25,0;-100;3,0;2,0;1,0;0,0;column;1,0;False;True;True;1,71700000763;False;0,730999946594
SSF1993w;experiment;2017-02-27-09-00-55;6,0;26,0;-100;0,0;2,0;1,0;3,0;row;0,0;True;False;True;1,81500005722;True;1,09699988365
SSF1993w;experiment;2017-02-27-09-00-55;6,0;27,0;-100;1,0;3,0;0,0;2,0;column;0,0;True;False;True;2,05000019073;True;0,860000133514
SSF1993w;experiment;2017-02-27-09-00-55;6,0;28,0;-100;0,0;3,0;2,0;1,0;row;0,0;False;True;True;2,08100008965;False;0,634000062943
SSF1993w;experiment;2017-02-27-09-00-55;6,0;29,0;-100;3,0;2,0;0,0;1,0;row;0,0;True;True;True;1,28299999237;True;1,16000008583
SSF1993w;experiment;2017-02-27-09-00-55;6,0;30,0;-100;3,0;1,0;0,0;2,0;column;0,0;False;False;False;2,48200011253;True;1,26699995995
SSF1993w;experiment;2017-02-27-09-00-55;6,0;31,0;-100;0,0;2,0;3,0;1,0;column;0,0;True;True;True;3,75100016594;True;0,822999954224
SSF1993w;experiment;2017-02-27-09-00-55;6,0;32,0;-100;1,0;0,0;3,0;2,0;row;1,0;False;False;True;5,64999985695;False;1,45800018311
SSF1993w;experiment;2017-02-27-09-00-55;6,0;33,0;-100;2,0;3,0;0,0;1,0;row;0,0;True;False;True;4,38400006294;True;1,132999897
SSF1993w;experiment;2017-02-27-09-00-55;6,0;34,0;-100;2,0;0,0;1,0;3,0;row;0,0;False;False;False;1,35100007057;True;0,568000078201
SSF1993w;experiment;2017-02-27-09-00-55;6,0;35,0;-100;2,0;1,0;3,0;0,0;column;1,0;True;False;True;1,75;True;0,598000049591
SSF1993w;experiment;2017-02-27-09-00-55;6,0;36,0;-100;2,0;3,0;1,0;0,0;column;1,0;True;False;True;1,21700000763;True;0,597999811172
SSF1993w;experiment;2017-02-27-09-00-55;6,0;37,0;-100;0,0;3,0;2,0;1,0;column;1,0;False;False;False;0,950000047684;True;0,702999830246
SSF1993w;experiment;2017-02-27-09-00-55;6,0;38,0;-100;0,0;3,0;1,0;2,0;column;1,0;False;False;True;5,58500003815;False;0,802999973297
SSF1993w;experiment;2017-02-27-09-00-55;6,0;39,0;-100;1,0;3,0;2,0;0,0;column;1,0;False;False;False;1,41699981689;True;0,731999874115
SSF1993w;experiment;2017-02-27-09-00-55;6,0;40,0;-100;0,0;3,0;2,0;1,0;column;0,0;True;True;False;2,28400015831;False;0,970999956131
SSF1993w;experiment;2017-02-27-09-00-55;6,0;41,0;-100;1,0;3,0;2,0;0,0;row;1,0;True;True;True;2,05099987984;True;0,965000152588
SSF1993w;experiment;2017-02-27-09-00-55;6,0;42,0;-100;0,0;1,0;3,0;2,0;column;1,0;True;True;True;4,58299994469;True;1,12699985504
SSF1993w;experiment;2017-02-27-09-00-55;6,0;43,0;-100;1,0;0,0;3,0;2,0;row;1,0;True;True;True;1,28400015831;True;1,46099996567
SSF1993w;experiment;2017-02-27-09-00-55;6,0;44,0;-100;1,0;3,0;0,0;2,0;row;0,0;True;True;True;3,41699981689;True;1,33299994469
SSF1993w;experiment;2017-02-27-09-00-55;6,0;45,0;-100;0,0;2,0;3,0;1,0;row;1,0;False;True;False;2,28200006485;True;1,26699995995
SSF1993w;experiment;2017-02-27-09-00-55;6,0;46,0;-100;0,0;1,0;3,0;2,0;row;0,0;False;True;False;3,55099987984;True;1,29200005531
SSF1993w;experiment;2017-02-27-09-00-55;6,0;47,0;-100;0,0;2,0;1,0;3,0;row;1,0;False;False;False;1,65100002289;True;1,49699997902
SSF1993w;experiment;2017-02-27-09-00-55;6,0;48,0;-100;2,0;1,0;0,0;3,0;column;0,0;False;True;False;2,08300018311;True;0,935000181198
SSF1993w;experiment;2017-02-27-09-00-55;7,0;1,0;-100;2,0;1,0;3,0;0,0;column;1,0;False;True;False;1,882999897;True;0,904000043869
SSF1993w;experiment;2017-02-27-09-00-55;7,0;2,0;-100;2,0;1,0;0,0;3,0;column;1,0;False;True;False;1,01699995995;True;1,19799995422
SSF1993w;experiment;2017-02-27-09-00-55;7,0;3,0;-100;2,0;1,0;0,0;3,0;column;0,0;True;True;True;2,617000103;True;1,43499994278
SSF1993w;experiment;2017-02-27-09-00-55;7,0;4,0;-100;2,0;1,0;0,0;3,0;row;1,0;True;False;True;1,61699986458;True;1,16599988937
SSF1993w;experiment;2017-02-27-09-00-55;7,0;5,0;-100;3,0;1,0;0,0;2,0;row;0,0;True;True;True;2,61500000954;True;1,32799983025
SSF1993w;experiment;2017-02-27-09-00-55;7,0;6,0;-100;3,0;2,0;1,0;0,0;row;1,0;False;True;False;2,14899992943;True;0,835000038147
SSF1993w;experiment;2017-02-27-09-00-55;7,0;7,0;-100;3,0;2,0;1,0;0,0;column;1,0;True;True;True;2,38199996948;True;0,662000179291
SSF1993w;experiment;2017-02-27-09-00-55;7,0;8,0;-100;3,0;2,0;0,0;1,0;column;1,0;False;True;False;1,94999980927;True;1,1890001297
SSF1993w;experiment;2017-02-27-09-00-55;7,0;9,0;-100;1,0;3,0;2,0;0,0;row;1,0;False;False;False;1,45000004768;True;0,930999994278
SSF1993w;experiment;2017-02-27-09-00-55;7,0;10,0;-100;0,0;1,0;3,0;2,0;row;1,0;False;False;False;2,44999980927;True;0,927999973297
SSF1993w;experiment;2017-02-27-09-00-55;7,0;11,0;-100;3,0;0,0;2,0;1,0;column;0,0;False;False;False;1,75;True;1,05500006676
SSF1993w;experiment;2017-02-27-09-00-55;7,0;12,0;-100;2,0;0,0;1,0;3,0;column;1,0;False;True;False;1,71599984169;True;1,43300008774
SSF1993w;experiment;2017-02-27-09-00-55;7,0;13,0;-100;1,0;2,0;3,0;0,0;row;1,0;True;True;True;2,54999995232;True;0,867999792099
SSF1993w;experiment;2017-02-27-09-00-55;7,0;14,0;-100;0,0;3,0;1,0;2,0;column;0,0;True;False;True;1,6819999218;True;0,699000120163
SSF1993w;experiment;2017-02-27-09-00-55;7,0;15,0;-100;2,0;0,0;1,0;3,0;row;1,0;True;False;True;1,45000004768;True;1,36800003052
SSF1993w;experiment;2017-02-27-09-00-55;7,0;16,0;-100;1,0;2,0;0,0;3,0;column;0,0;True;True;True;1,41599988937;True;1,46499991417
SSF1993w;experiment;2017-02-27-09-00-55;7,0;17,0;-100;3,0;2,0;0,0;1,0;column;1,0;True;False;True;1,84899997711;True;0,529000043869
SSF1993w;experiment;2017-02-27-09-00-55;7,0;18,0;-100;3,0;1,0;2,0;0,0;row;0,0;False;True;False;1,61400008202;True;1,2610001564
SSF1993w;experiment;2017-02-27-09-00-55;7,0;19,0;-100;1,0;0,0;2,0;3,0;column;1,0;False;True;False;1,78200006485;True;1,16000008583
SSF1993w;experiment;2017-02-27-09-00-55;7,0;20,0;-100;1,0;2,0;0,0;3,0;column;1,0;True;True;True;1,38400006294;True;0,636999845505
SSF1993w;experiment;2017-02-27-09-00-55;7,0;21,0;-100;3,0;1,0;0,0;2,0;row;0,0;False;False;False;2,34999990463;True;0,737999916077
SSF1993w;experiment;2017-02-27-09-00-55;7,0;22,0;-100;2,0;3,0;1,0;0,0;column;1,0;False;False;False;1,35000014305;True;0,700999975204
SSF1993w;experiment;2017-02-27-09-00-55;7,0;23,0;-100;2,0;1,0;3,0;0,0;row;1,0;True;True;False;2,31699991226;False;0,53200006485
SSF1993w;experiment;2017-02-27-09-00-55;7,0;24,0;-100;0,0;1,0;2,0;3,0;row;0,0;True;False;True;0,950999975204;True;1,10199999809
SSF1993w;experiment;2017-02-27-09-00-55;7,0;25,0;-100;0,0;3,0;2,0;1,0;row;0,0;True;True;True;2,61500000954;True;1,12600016594
SSF1993w;experiment;2017-02-27-09-00-55;7,0;26,0;-100;1,0;0,0;2,0;3,0;row;1,0;True;True;False;1,65100002289;False;0,56200003624
SSF1993w;experiment;2017-02-27-09-00-55;7,0;27,0;-100;1,0;3,0;0,0;2,0;row;1,0;False;False;False;2,01699995995;True;0,726999998093
SSF1993w;experiment;2017-02-27-09-00-55;7,0;28,0;-100;2,0;1,0;3,0;0,0;column;0,0;True;False;True;2,68400001526;True;1,3259999752
SSF1993w;experiment;2017-02-27-09-00-55;7,0;29,0;-100;0,0;2,0;1,0;3,0;column;0,0;False;False;False;1,71799993515;True;0,756999969482
SSF1993w;experiment;2017-02-27-09-00-55;7,0;30,0;-100;1,0;2,0;3,0;0,0;column;1,0;True;False;True;2,44800019264;True;1,30099987984
SSF1993w;experiment;2017-02-27-09-00-55;7,0;31,0;-100;3,0;0,0;1,0;2,0;column;1,0;True;True;True;1,41700005531;True;0,893000125885
SSF1993w;experiment;2017-02-27-09-00-55;7,0;32,0;-100;2,0;0,0;3,0;1,0;column;0,0;False;False;False;2,35099983215;True;1,23100018501
SSF1993w;experiment;2017-02-27-09-00-55;7,0;33,0;-100;3,0;1,0;2,0;0,0;column;0,0;False;True;False;1,75100016594;True;1,29800009727
SSF1993w;experiment;2017-02-27-09-00-55;7,0;34,0;-100;1,0;0,0;3,0;2,0;column;0,0;True;True;False;4,58299994469;False;0,869000196457
SSF1993w;experiment;2017-02-27-09-00-55;7,0;35,0;-100;1,0;2,0;3,0;0,0;row;0,0;False;False;False;1,94999980927;True;0,564999818802
SSF1993w;experiment;2017-02-27-09-00-55;7,0;36,0;-100;0,0;2,0;1,0;3,0;row;0,0;False;True;False;3,44900012016;True;0,631000041962
SSF1993w;experiment;2017-02-27-09-00-55;7,0;37,0;-100;0,0;3,0;1,0;2,0;column;0,0;False;True;False;1,75;True;1,49399995804
SSF1993w;experiment;2017-02-27-09-00-55;7,0;38,0;-100;2,0;3,0;0,0;1,0;column;0,0;False;False;False;1,91700005531;True;0,834000110626
SSF1993w;experiment;2017-02-27-09-00-55;7,0;39,0;-100;3,0;1,0;0,0;2,0;column;0,0;True;True;True;2,08299994469;True;1,49800014496
SSF1993w;experiment;2017-02-27-09-00-55;7,0;40,0;-100;0,0;3,0;1,0;2,0;column;1,0;True;True;True;3,15000009537;True;1,40300011635
SSF1993w;experiment;2017-02-27-09-00-55;7,0;41,0;-100;0,0;3,0;1,0;2,0;row;1,0;False;False;False;2,25099992752;True;1,13499999046
SSF1993w;experiment;2017-02-27-09-00-55;7,0;42,0;-100;2,0;3,0;1,0;0,0;row;0,0;True;True;True;1,45000004768;True;1,42899990082
SSF1993w;experiment;2017-02-27-09-00-55;7,0;43,0;-100;1,0;0,0;3,0;2,0;row;0,0;False;False;False;1,58299994469;True;1,00200009346
SSF1993w;experiment;2017-02-27-09-00-55;7,0;44,0;-100;2,0;0,0;3,0;1,0;column;1,0;True;False;True;1,81500005722;True;1,30400013924
SSF1993w;experiment;2017-02-27-09-00-55;7,0;45,0;-100;0,0;1,0;2,0;3,0;column;1,0;False;False;True;3,04999995232;False;0,771999835968
SSF1993w;experiment;2017-02-27-09-00-55;7,0;46,0;-100;1,0;0,0;2,0;3,0;column;0,0;True;True;True;2,58300018311;True;1,38800001144
SSF1993w;experiment;2017-02-27-09-00-55;7,0;47,0;-100;3,0;2,0;1,0;0,0;column;0,0;False;True;False;2,34999990463;True;1,09699988365
SSF1993w;experiment;2017-02-27-09-00-55;7,0;48,0;-100;3,0;0,0;1,0;2,0;row;1,0;True;True;False;1,81599998474;False;1,49699997902
SSF1993w;experiment;2017-02-27-09-00-55;8,0;1,0;1000;0,0;1,0;2,0;3,0;column;0,0;False;False;False;3,30100011826;True;0,628000020981
SSF1993w;experiment;2017-02-27-09-00-55;8,0;2,0;1000;2,0;1,0;3,0;0,0;row;0,0;True;False;True;0,967000007629;True;0,898999929428
SSF1993w;experiment;2017-02-27-09-00-55;8,0;3,0;1000;3,0;0,0;2,0;1,0;column;1,0;False;True;False;1,20000004768;True;1,0
SSF1993w;experiment;2017-02-27-09-00-55;8,0;4,0;1000;2,0;0,0;1,0;3,0;column;1,0;True;False;True;1,66700005531;True;1,30200004578
SSF1993w;experiment;2017-02-27-09-00-55;8,0;5,0;1000;1,0;3,0;0,0;2,0;column;0,0;True;True;False;1,40000009537;False;1,19599986076
SSF1993w;experiment;2017-02-27-09-00-55;8,0;6,0;1000;0,0;2,0;1,0;3,0;row;0,0;False;True;False;2,83299994469;True;1,03200006485
SSF1993w;experiment;2017-02-27-09-00-55;8,0;7,0;1000;0,0;2,0;3,0;1,0;column;0,0;False;True;False;1,43400001526;True;1,13999986649
SSF1993w;experiment;2017-02-27-09-00-55;8,0;8,0;1000;0,0;3,0;2,0;1,0;column;1,0;False;True;False;1,53299999237;True;1,40100002289
SSF1993w;experiment;2017-02-27-09-00-55;8,0;9,0;1000;0,0;2,0;1,0;3,0;column;0,0;True;True;True;2,5;True;1,33200001717
SSF1993w;experiment;2017-02-27-09-00-55;8,0;10,0;1000;3,0;1,0;0,0;2,0;row;0,0;False;True;False;1,76600003242;True;0,90299987793
SSF1993w;experiment;2017-02-27-09-00-55;8,0;11,0;1000;2,0;1,0;3,0;0,0;row;0,0;False;False;False;1,53399991989;True;1,33500003815
SSF1993w;experiment;2017-02-27-09-00-55;8,0;12,0;1000;3,0;1,0;0,0;2,0;column;1,0;True;False;False;2,83200001717;False;0,891999959946
SSF1993w;experiment;2017-02-27-09-00-55;8,0;13,0;1000;1,0;2,0;0,0;3,0;column;0,0;True;False;True;1,26799988747;True;0,962999820709
SSF1993w;experiment;2017-02-27-09-00-55;8,0;14,0;1000;0,0;1,0;3,0;2,0;column;1,0;True;False;True;1,90000009537;True;1,15700006485
SSF1993w;experiment;2017-02-27-09-00-55;8,0;15,0;1000;2,0;0,0;1,0;3,0;column;0,0;False;False;True;2,16499996185;False;0,825000047684
SSF1993w;experiment;2017-02-27-09-00-55;8,0;16,0;1000;2,0;3,0;0,0;1,0;column;1,0;True;True;True;2,40100002289;True;0,760999917984
SSF1993w;experiment;2017-02-27-09-00-55;8,0;17,0;1000;3,0;0,0;1,0;2,0;row;0,0;False;False;False;2,7990000248;True;1,05799984932
SSF1993w;experiment;2017-02-27-09-00-55;8,0;18,0;1000;1,0;2,0;3,0;0,0;column;1,0;False;True;False;1,10099983215;True;1,10299992561
SSF1993w;experiment;2017-02-27-09-00-55;8,0;19,0;1000;0,0;1,0;3,0;2,0;row;0,0;True;True;False;1,03299999237;False;0,636999845505
SSF1993w;experiment;2017-02-27-09-00-55;8,0;20,0;1000;3,0;0,0;1,0;2,0;column;1,0;False;True;False;2,06399989128;True;1,33800005913
SSF1993w;experiment;2017-02-27-09-00-55;8,0;21,0;1000;2,0;3,0;1,0;0,0;row;0,0;False;True;False;1,46700000763;True;1,03199982643
SSF1993w;experiment;2017-02-27-09-00-55;8,0;22,0;1000;0,0;1,0;3,0;2,0;column;0,0;False;False;True;1,39999985695;False;1,5
SSF1993w;experiment;2017-02-27-09-00-55;8,0;23,0;1000;1,0;3,0;0,0;2,0;column;0,0;False;True;True;2,06599998474;False;1,23300004005
SSF1993w;experiment;2017-02-27-09-00-55;8,0;24,0;1000;1,0;3,0;2,0;0,0;row;0,0;False;True;False;2,89999985695;True;0,725999832153
SSF1993w;experiment;2017-02-27-09-00-55;8,0;25,0;1000;1,0;0,0;3,0;2,0;row;0,0;True;False;False;2,06599998474;False;1,25899982452
SSF1993w;experiment;2017-02-27-09-00-55;8,0;26,0;1000;1,0;3,0;2,0;0,0;column;0,0;True;True;True;1,56599998474;True;1,16499996185
SSF1993w;experiment;2017-02-27-09-00-55;8,0;27,0;1000;1,0;0,0;3,0;2,0;column;0,0;True;True;True;1,09999990463;True;0,898000001907
SSF1993w;experiment;2017-02-27-09-00-55;8,0;28,0;1000;1,0;0,0;3,0;2,0;row;0,0;False;True;True;2,56599998474;False;0,699999809265
SSF1993w;experiment;2017-02-27-09-00-55;8,0;29,0;1000;1,0;2,0;3,0;0,0;column;0,0;False;False;True;2,90000009537;False;0,964999914169
SSF1993w;experiment;2017-02-27-09-00-55;8,0;30,0;1000;1,0;0,0;3,0;2,0;row;1,0;False;False;False;2,10100007057;True;0,595999956131
SSF1993w;experiment;2017-02-27-09-00-55;8,0;31,0;1000;1,0;0,0;2,0;3,0;row;0,0;False;False;True;2,29999995232;False;1,26499986649
SSF1993w;experiment;2017-02-27-09-00-55;8,0;32,0;1000;1,0;0,0;3,0;2,0;column;1,0;False;True;False;1,79999995232;True;0,926999807358
SSF1993w;experiment;2017-02-27-09-00-55;8,0;33,0;1000;1,0;2,0;3,0;0,0;row;0,0;False;False;True;3,26699995995;False;1,00099992752
SSF1993w;experiment;2017-02-27-09-00-55;8,0;34,0;1000;2,0;1,0;3,0;0,0;column;0,0;True;True;False;1,53399991989;False;0,991999864578
SSF1993w;experiment;2017-02-27-09-00-55;8,0;35,0;1000;2,0;1,0;0,0;3,0;column;0,0;True;True;False;1,63300013542;False;0,694999933243
SSF1993w;experiment;2017-02-27-09-00-55;8,0;36,0;1000;0,0;1,0;2,0;3,0;row;1,0;False;True;False;2,33299994469;True;1,09800004959
SSF1993w;experiment;2017-02-27-09-00-55;8,0;37,0;1000;3,0;2,0;1,0;0,0;column;1,0;True;True;True;2,43299984932;True;1,03299999237
SSF1993w;experiment;2017-02-27-09-00-55;8,0;38,0;1000;0,0;1,0;3,0;2,0;row;1,0;False;False;False;2,03100013733;True;0,960999965668
SSF1993w;experiment;2017-02-27-09-00-55;8,0;39,0;1000;1,0;2,0;0,0;3,0;column;0,0;False;True;True;3,06599998474;False;0,9390001297
SSF1993w;experiment;2017-02-27-09-00-55;8,0;40,0;1000;0,0;2,0;3,0;1,0;column;1,0;True;False;True;1,83299994469;True;0,732000112534
SSF1993w;experiment;2017-02-27-09-00-55;8,0;41,0;1000;2,0;3,0;1,0;0,0;row;1,0;True;False;True;3,43299984932;True;0,669999837875
SSF1993w;experiment;2017-02-27-09-00-55;8,0;42,0;1000;1,0;3,0;2,0;0,0;row;1,0;False;True;False;1,93400001526;True;0,766000032425
SSF1993w;experiment;2017-02-27-09-00-55;8,0;43,0;1000;0,0;3,0;1,0;2,0;row;0,0;False;False;False;2,76600003242;True;1,46099996567
SSF1993w;experiment;2017-02-27-09-00-55;8,0;44,0;1000;3,0;0,0;2,0;1,0;column;0,0;True;False;False;5,29999995232;False;0,596999883652
SSF1993w;experiment;2017-02-27-09-00-55;8,0;45,0;1000;2,0;1,0;3,0;0,0;column;1,0;True;True;True;1,90099978447;True;1,49300003052
SSF1993w;experiment;2017-02-27-09-00-55;8,0;46,0;1000;0,0;2,0;1,0;3,0;column;1,0;True;True;True;0,899999856949;True;0,998999834061
SSF1993w;experiment;2017-02-27-09-00-55;8,0;47,0;1000;0,0;1,0;3,0;2,0;row;1,0;True;False;True;2,16700005531;True;1,33399987221
SSF1993w;experiment;2017-02-27-09-00-55;8,0;48,0;1000;3,0;1,0;0,0;2,0;column;0,0;True;False;True;1,83400011063;True;1,33800005913
SSF1993w;experiment;2017-02-27-09-00-55;9,0;1,0;100;0,0;2,0;3,0;1,0;row;1,0;False;False;False;1,23199987411;True;0,784999847412
SSF1993w;experiment;2017-02-27-09-00-55;9,0;2,0;100;0,0;1,0;3,0;2,0;row;1,0;True;False;True;2,53300023079;True;0,93399977684
SSF1993w;experiment;2017-02-27-09-00-55;9,0;3,0;100;1,0;3,0;0,0;2,0;column;1,0;False;True;False;1,73300004005;True;0,860999822617
SSF1993w;experiment;2017-02-27-09-00-55;9,0;4,0;100;1,0;3,0;0,0;2,0;row;0,0;False;True;False;1,132999897;True;1,2349998951
SSF1993w;experiment;2017-02-27-09-00-55;9,0;5,0;100;2,0;1,0;3,0;0,0;column;1,0;False;False;False;3,73200011253;True;1,06699991226
SSF1993w;experiment;2017-02-27-09-00-55;9,0;6,0;100;1,0;0,0;3,0;2,0;column;0,0;True;True;True;2,4319999218;True;0,93799996376
SSF1993w;experiment;2017-02-27-09-00-55;9,0;7,0;100;1,0;3,0;2,0;0,0;row;0,0;True;True;False;2,5;False;1,2650001049
SSF1993w;experiment;2017-02-27-09-00-55;9,0;8,0;100;0,0;3,0;1,0;2,0;column;1,0;True;True;False;3,5;False;0,967000007629
SSF1993w;experiment;2017-02-27-09-00-55;9,0;9,0;100;1,0;3,0;0,0;2,0;column;0,0;False;False;False;1,46399998665;True;1,0680000782
SSF1993w;experiment;2017-02-27-09-00-55;9,0;10,0;100;2,0;3,0;0,0;1,0;row;1,0;False;True;False;2,16700005531;True;1,22799992561
SSF1993w;experiment;2017-02-27-09-00-55;9,0;11,0;100;1,0;2,0;0,0;3,0;row;0,0;True;True;True;2,26699995995;True;1,42299985886
SSF1993w;experiment;2017-02-27-09-00-55;9,0;12,0;100;3,0;0,0;2,0;1,0;row;0,0;False;True;True;2,16599988937;False;1,46700000763
SSF1993w;experiment;2017-02-27-09-00-55;9,0;13,0;100;3,0;1,0;2,0;0,0;row;0,0;True;True;False;2,5;False;1,29799985886
SSF1993w;experiment;2017-02-27-09-00-55;9,0;14,0;100;0,0;1,0;2,0;3,0;column;0,0;False;False;True;2,76699995995;False;0,996000051498
SSF1993w;experiment;2017-02-27-09-00-55;9,0;15,0;100;1,0;0,0;2,0;3,0;column;0,0;True;True;True;2,56599998474;True;0,700000047684
SSF1993w;experiment;2017-02-27-09-00-55;9,0;16,0;100;3,0;1,0;0,0;2,0;column;0,0;False;False;True;5,30000019073;False;0,767999887466
SSF1993w;experiment;2017-02-27-09-00-55;9,0;17,0;100;3,0;1,0;2,0;0,0;row;1,0;False;True;False;5,83299994469;True;0,926999807358
SSF1993w;experiment;2017-02-27-09-00-55;9,0;18,0;100;0,0;2,0;1,0;3,0;row;1,0;False;True;True;1,83300018311;False;0,532999992371
SSF1993w;experiment;2017-02-27-09-00-55;9,0;19,0;100;2,0;1,0;3,0;0,0;column;0,0;False;False;False;5,00100016594;True;1,10000014305
SSF1993w;experiment;2017-02-27-09-00-55;9,0;20,0;100;2,0;3,0;1,0;0,0;row;1,0;True;False;True;4,29600000381;True;1,29700016975
SSF1993w;experiment;2017-02-27-09-00-55;9,0;21,0;100;3,0;2,0;0,0;1,0;column;1,0;True;False;True;1,93400001526;True;0,825999975204
SSF1993w;experiment;2017-02-27-09-00-55;9,0;22,0;100;0,0;1,0;2,0;3,0;column;0,0;True;True;False;1,33299994469;False;0,825000047684
SSF1993w;experiment;2017-02-27-09-00-55;9,0;23,0;100;3,0;2,0;0,0;1,0;row;1,0;False;False;False;2,26600003242;True;1,12599992752
SSF1993w;experiment;2017-02-27-09-00-55;9,0;24,0;100;2,0;3,0;1,0;0,0;column;0,0;False;False;True;4,03299999237;False;0,567999839783
SSF1993w;experiment;2017-02-27-09-00-55;9,0;25,0;100;0,0;3,0;2,0;1,0;row;1,0;False;False;False;3,03299999237;True;1,16499996185
SSF1993w;experiment;2017-02-27-09-00-55;9,0;26,0;100;0,0;3,0;2,0;1,0;column;1,0;True;True;True;3,03299999237;True;1,52999997139
SSF1993w;experiment;2017-02-27-09-00-55;9,0;27,0;100;1,0;2,0;0,0;3,0;row;1,0;False;True;False;1,83100008965;True;0,765000104904
SSF1993w;experiment;2017-02-27-09-00-55;9,0;28,0;100;3,0;1,0;2,0;0,0;column;0,0;True;False;True;2,632999897;True;1,4960000515
SSF1993w;experiment;2017-02-27-09-00-55;9,0;29,0;100;1,0;3,0;0,0;2,0;column;0,0;True;False;True;1,5;True;1,23199987411
SSF1993w;experiment;2017-02-27-09-00-55;9,0;30,0;100;2,0;1,0;3,0;0,0;row;1,0;True;False;True;4,03400015831;True;1,30199980736
SSF1993w;experiment;2017-02-27-09-00-55;9,0;31,0;100;3,0;1,0;2,0;0,0;row;0,0;False;True;False;2,56700015068;True;1,39800000191
SSF1993w;experiment;2017-02-27-09-00-55;9,0;32,0;100;1,0;2,0;0,0;3,0;column;1,0;False;False;True;2,76700019836;False;1,19899988174
SSF1993w;experiment;2017-02-27-09-00-55;9,0;33,0;100;0,0;1,0;3,0;2,0;column;1,0;True;False;True;1,90000009537;True;0,599999904633
SSF1993w;experiment;2017-02-27-09-00-55;9,0;34,0;100;3,0;1,0;0,0;2,0;column;1,0;False;False;False;1,09999990463;True;1,19400000572
SSF1993w;experiment;2017-02-27-09-00-55;9,0;35,0;100;1,0;3,0;0,0;2,0;row;0,0;True;False;True;1,7009999752;True;0,897000074387
SSF1993w;experiment;2017-02-27-09-00-55;9,0;36,0;100;2,0;3,0;1,0;0,0;row;0,0;True;True;True;1,89999985695;True;0,725000143051
SSF1993w;experiment;2017-02-27-09-00-55;9,0;37,0;100;3,0;2,0;1,0;0,0;column;1,0;True;False;True;1,43400001526;True;0,868999958038
SSF1993w;experiment;2017-02-27-09-00-55;9,0;38,0;100;1,0;3,0;0,0;2,0;column;1,0;True;True;True;1,33299994469;True;1,13700008392
SSF1993w;experiment;2017-02-27-09-00-55;9,0;39,0;100;1,0;0,0;3,0;2,0;column;1,0;False;False;False;1,46700000763;True;0,634999990463
SSF1993w;experiment;2017-02-27-09-00-55;9,0;40,0;100;3,0;2,0;1,0;0,0;row;1,0;True;True;False;1,90100002289;False;1,20000004768
SSF1993w;experiment;2017-02-27-09-00-55;9,0;41,0;100;3,0;1,0;2,0;0,0;column;0,0;False;False;True;2,53399991989;False;0,904000043869
SSF1993w;experiment;2017-02-27-09-00-55;9,0;42,0;100;2,0;1,0;0,0;3,0;row;1,0;True;True;True;1,43099999428;True;0,894999980927
SSF1993w;experiment;2017-02-27-09-00-55;9,0;43,0;100;2,0;0,0;3,0;1,0;row;1,0;True;True;True;2,83399987221;True;1,1970000267
SSF1993w;experiment;2017-02-27-09-00-55;9,0;44,0;100;0,0;2,0;3,0;1,0;row;0,0;True;True;True;1,56700015068;True;1,09800004959
SSF1993w;experiment;2017-02-27-09-00-55;9,0;45,0;100;0,0;3,0;1,0;2,0;row;1,0;True;True;True;1,46399998665;True;1,16700005531
SSF1993w;experiment;2017-02-27-09-00-55;9,0;46,0;100;2,0;1,0;3,0;0,0;row;0,0;True;False;True;1,20000004768;True;0,570999860764
SSF1993w;experiment;2017-02-27-09-00-55;9,0;47,0;100;1,0;2,0;3,0;0,0;row;0,0;True;False;True;0,799999952316;True;1,36199998856
SSF1993w;experiment;2017-02-27-09-00-55;9,0;48,0;100;2,0;1,0;3,0;0,0;row;0,0;False;False;False;1,59999990463;True;1,2009999752
SSF1993w;experiment;2017-02-27-09-00-55;10,0;1,0;-100;3,0;1,0;2,0;0,0;column;1,0;True;False;True;1,44900012016;True;1,38999986649
SSF1993w;experiment;2017-02-27-09-00-55;10,0;2,0;-100;2,0;0,0;3,0;1,0;row;0,0;True;True;True;1,55100011826;True;1,03399991989
SSF1993w;experiment;2017-02-27-09-00-55;10,0;3,0;-100;0,0;1,0;2,0;3,0;row;1,0;True;False;True;1,45000004768;True;1,16700005531
SSF1993w;experiment;2017-02-27-09-00-55;10,0;4,0;-100;2,0;0,0;3,0;1,0;column;1,0;False;True;False;2,01600003242;True;1,40100002289
SSF1993w;experiment;2017-02-27-09-00-55;10,0;5,0;-100;0,0;2,0;3,0;1,0;column;1,0;False;True;False;1,58299994469;True;1,39999985695
SSF1993w;experiment;2017-02-27-09-00-55;10,0;6,0;-100;1,0;2,0;0,0;3,0;column;0,0;False;False;False;1,44900012016;True;1,36599993706
SSF1993w;experiment;2017-02-27-09-00-55;10,0;7,0;-100;1,0;0,0;2,0;3,0;row;0,0;False;False;False;2,48299980164;True;0,601999998093
SSF1993w;experiment;2017-02-27-09-00-55;10,0;8,0;-100;2,0;3,0;1,0;0,0;column;0,0;True;False;True;3,18099999428;True;1,26600003242
SSF1993w;experiment;2017-02-27-09-00-55;10,0;9,0;-100;0,0;2,0;3,0;1,0;row;0,0;False;True;False;1,75;True;1,23600006104
SSF1993w;experiment;2017-02-27-09-00-55;10,0;10,0;-100;3,0;2,0;0,0;1,0;column;0,0;True;True;False;2,21500015259;False;0,964999914169
SSF1993w;experiment;2017-02-27-09-00-55;10,0;11,0;-100;1,0;2,0;3,0;0,0;column;0,0;False;False;False;2,28200006485;True;0,900000095367
SSF1993w;experiment;2017-02-27-09-00-55;10,0;12,0;-100;0,0;1,0;2,0;3,0;row;1,0;False;True;False;0,983999967575;True;0,55999994278
SSF1993w;experiment;2017-02-27-09-00-55;10,0;13,0;-100;1,0;2,0;0,0;3,0;row;1,0;False;True;False;1,24899983406;True;0,756999969482
SSF1993w;experiment;2017-02-27-09-00-55;10,0;14,0;-100;0,0;2,0;1,0;3,0;row;1,0;True;False;True;1,41700005531;True;0,567000150681
SSF1993w;experiment;2017-02-27-09-00-55;10,0;15,0;-100;2,0;3,0;0,0;1,0;row;1,0;True;True;True;2,65000009537;True;0,56299996376
SSF1993w;experiment;2017-02-27-09-00-55;10,0;16,0;-100;2,0;3,0;1,0;0,0;row;1,0;False;True;False;1,5150001049;True;1,132999897
SSF1993w;experiment;2017-02-27-09-00-55;10,0;17,0;-100;2,0;0,0;1,0;3,0;row;1,0;False;False;False;1,71800017357;True;0,536000013351
SSF1993w;experiment;2017-02-27-09-00-55;10,0;18,0;-100;2,0;0,0;3,0;1,0;row;1,0;False;False;False;2,28299999237;True;0,657999992371
SSF1993w;experiment;2017-02-27-09-00-55;10,0;19,0;-100;0,0;1,0;3,0;2,0;column;0,0;True;False;True;1,28299999237;True;1,50400018692
SSF1993w;experiment;2017-02-27-09-00-55;10,0;20,0;-100;2,0;1,0;0,0;3,0;row;0,0;True;True;True;1,78400015831;True;0,93799996376
SSF1993w;experiment;2017-02-27-09-00-55;10,0;21,0;-100;0,0;3,0;1,0;2,0;row;0,0;False;False;False;0,750999927521;True;1,50099992752
SSF1993w;experiment;2017-02-27-09-00-55;10,0;22,0;-100;2,0;3,0;0,0;1,0;row;1,0;False;True;False;0,916000127792;True;1,09399986267
SSF1993w;experiment;2017-02-27-09-00-55;10,0;23,0;-100;3,0;1,0;0,0;2,0;column;1,0;True;False;False;1,61500000954;False;0,633000135422
SSF1993w;experiment;2017-02-27-09-00-55;10,0;24,0;-100;0,0;2,0;1,0;3,0;column;1,0;False;True;False;0,881999969482;True;0,871000051498
SSF1993w;experiment;2017-02-27-09-00-55;10,0;25,0;-100;2,0;0,0;1,0;3,0;column;1,0;True;False;True;1,88400006294;True;0,533999919891
SSF1993w;experiment;2017-02-27-09-00-55;10,0;26,0;-100;1,0;2,0;0,0;3,0;row;1,0;True;True;False;2,31500005722;False;0,602999925613
SSF1993w;experiment;2017-02-27-09-00-55;10,0;27,0;-100;0,0;2,0;3,0;1,0;row;0,0;True;True;True;2,28500008583;True;0,768000125885
SSF1993w;experiment;2017-02-27-09-00-55;10,0;28,0;-100;1,0;3,0;0,0;2,0;column;1,0;False;True;False;1,08100008965;True;1,49099993706
SSF1993w;experiment;2017-02-27-09-00-55;10,0;29,0;-100;3,0;1,0;0,0;2,0;column;1,0;False;False;False;1,44900012016;True;0,733999967575
SSF1993w;experiment;2017-02-27-09-00-55;10,0;30,0;-100;1,0;0,0;2,0;3,0;column;0,0;False;False;False;2,0150001049;True;1,1970000267
SSF1993w;experiment;2017-02-27-09-00-55;10,0;31,0;-100;0,0;2,0;3,0;1,0;column;1,0;True;False;True;1,85000014305;True;0,525000095367
SSF1993w;experiment;2017-02-27-09-00-55;10,0;32,0;-100;3,0;0,0;2,0;1,0;row;0,0;False;False;False;1,28299999237;True;1,36199998856
SSF1993w;experiment;2017-02-27-09-00-55;10,0;33,0;-100;1,0;2,0;3,0;0,0;row;0,0;True;False;True;1,5490000248;True;0,998000144958
SSF1993w;experiment;2017-02-27-09-00-55;10,0;34,0;-100;0,0;1,0;2,0;3,0;column;1,0;True;False;True;1,45000004768;True;1,50099992752
SSF1993w;experiment;2017-02-27-09-00-55;10,0;35,0;-100;0,0;1,0;2,0;3,0;column;0,0;False;True;False;1,48300004005;True;0,596999883652
SSF1993w;experiment;2017-02-27-09-00-55;10,0;36,0;-100;2,0;3,0;0,0;1,0;column;0,0;True;True;True;2,11699986458;True;1,20500016212
SSF1993w;experiment;2017-02-27-09-00-55;10,0;37,0;-100;2,0;1,0;3,0;0,0;column;0,0;False;False;True;1,88199996948;False;1,02499985695
SSF1993w;experiment;2017-02-27-09-00-55;10,0;38,0;-100;3,0;0,0;1,0;2,0;column;0,0;True;False;False;1,58299994469;False;1,16400003433
SSF1993w;experiment;2017-02-27-09-00-55;10,0;39,0;-100;1,0;3,0;2,0;0,0;row;0,0;False;True;False;1,54200005531;True;0,697999954224
SSF1993w;experiment;2017-02-27-09-00-55;10,0;40,0;-100;3,0;1,0;2,0;0,0;row;0,0;True;True;True;1,04999995232;True;1,3259999752
SSF1993w;experiment;2017-02-27-09-00-55;10,0;41,0;-100;3,0;0,0;2,0;1,0;column;1,0;False;True;False;1,54899978638;True;0,824000120163
SSF1993w;experiment;2017-02-27-09-00-55;10,0;42,0;-100;1,0;2,0;3,0;0,0;column;1,0;False;False;False;1,38400006294;True;0,65900015831
SSF1993w;experiment;2017-02-27-09-00-55;10,0;43,0;-100;1,0;3,0;2,0;0,0;column;1,0;True;True;True;1,11500000954;True;0,965000152588
SSF1993w;experiment;2017-02-27-09-00-55;10,0;44,0;-100;2,0;0,0;3,0;1,0;column;0,0;True;True;False;1,28399991989;False;0,924999952316
SSF1993w;experiment;2017-02-27-09-00-55;10,0;45,0;-100;2,0;3,0;0,0;1,0;column;1,0;True;False;True;1,4509999752;True;0,603000164032
SSF1993w;experiment;2017-02-27-09-00-55;10,0;46,0;-100;3,0;0,0;2,0;1,0;column;0,0;True;True;True;1,98399996758;True;0,834999799728
SSF1993w;experiment;2017-02-27-09-00-55;10,0;47,0;-100;2,0;0,0;3,0;1,0;row;1,0;True;True;False;1,71700000763;False;0,958000183105
SSF1993w;experiment;2017-02-27-09-00-55;10,0;48,0;-100;3,0;1,0;0,0;2,0;row;1,0;False;True;False;0,950000047684;True;0,694999933243
SSF1993w;experiment;2017-02-27-09-00-55;11,0;1,0;100;1,0;3,0;2,0;0,0;row;1,0;True;True;True;1,49900007248;True;1,29699993134
SSF1993w;experiment;2017-02-27-09-00-55;11,0;2,0;100;3,0;2,0;1,0;0,0;row;0,0;True;True;False;2,16700005531;False;0,990000009537
SSF1993w;experiment;2017-02-27-09-00-55;11,0;3,0;100;0,0;1,0;3,0;2,0;column;0,0;True;True;True;2,20000004768;True;0,599999904633
SSF1993w;experiment;2017-02-27-09-00-55;11,0;4,0;100;0,0;1,0;2,0;3,0;row;0,0;False;True;False;1,83200001717;True;1,33899998665
SSF1993w;experiment;2017-02-27-09-00-55;11,0;5,0;100;2,0;3,0;1,0;0,0;column;1,0;True;True;True;3,33399987221;True;1,16700005531
SSF1993w;experiment;2017-02-27-09-00-55;11,0;6,0;100;3,0;0,0;2,0;1,0;column;1,0;True;True;True;1,40000009537;True;0,930999994278
SSF1993w;experiment;2017-02-27-09-00-55;11,0;7,0;100;0,0;3,0;1,0;2,0;row;0,0;True;True;True;1,70000004768;True;0,831000089645
SSF1993w;experiment;2017-02-27-09-00-55;11,0;8,0;100;0,0;1,0;2,0;3,0;row;0,0;True;False;True;2,73300004005;True;0,866000175476
SSF1993w;experiment;2017-02-27-09-00-55;11,0;9,0;100;0,0;1,0;2,0;3,0;column;1,0;False;True;True;2,7349998951;False;1,06799983978
SSF1993w;experiment;2017-02-27-09-00-55;11,0;10,0;100;3,0;0,0;2,0;1,0;row;1,0;True;True;True;3,73300004005;True;0,97000002861
SSF1993w;experiment;2017-02-27-09-00-55;11,0;11,0;100;3,0;1,0;2,0;0,0;row;1,0;True;True;True;2,19900012016;True;0,654000043869
SSF1993w;experiment;2017-02-27-09-00-55;11,0;12,0;100;3,0;1,0;0,0;2,0;column;1,0;True;False;True;1,23400020599;True;1,16700005531
SSF1993w;experiment;2017-02-27-09-00-55;11,0;13,0;100;0,0;2,0;1,0;3,0;row;1,0;True;True;True;1,39800000191;True;0,536999940872
SSF1993w;experiment;2017-02-27-09-00-55;11,0;14,0;100;0,0;1,0;2,0;3,0;row;1,0;True;True;True;1,66699981689;True;0,932000160217
SSF1993w;experiment;2017-02-27-09-00-55;11,0;15,0;100;0,0;2,0;1,0;3,0;row;0,0;True;False;True;5,40100002289;True;0,765000104904
SSF1993w;experiment;2017-02-27-09-00-55;11,0;16,0;100;3,0;2,0;0,0;1,0;column;0,0;False;True;False;1,53299999237;True;0,730999946594
SSF1993w;experiment;2017-02-27-09-00-55;11,0;17,0;100;1,0;3,0;2,0;0,0;column;0,0;False;False;False;1,46700000763;True;1,30099987984
SSF1993w;experiment;2017-02-27-09-00-55;11,0;18,0;100;3,0;2,0;1,0;0,0;column;0,0;True;True;True;2,632999897;True;1,50200009346
SSF1993w;experiment;2017-02-27-09-00-55;11,0;19,0;100;2,0;0,0;1,0;3,0;column;1,0;False;False;False;2,59999990463;True;1,4319999218
SSF1993w;experiment;2017-02-27-09-00-55;11,0;20,0;100;2,0;1,0;3,0;0,0;row;1,0;False;False;False;3,09700012207;True;1,3220000267
SSF1993w;experiment;2017-02-27-09-00-55;11,0;21,0;100;0,0;3,0;2,0;1,0;row;0,0;False;False;False;1,03199982643;True;0,5640001297
SSF1993w;experiment;2017-02-27-09-00-55;11,0;22,0;100;1,0;2,0;0,0;3,0;column;0,0;True;True;True;1,33299994469;True;0,766000032425
SSF1993w;experiment;2017-02-27-09-00-55;11,0;23,0;100;2,0;0,0;1,0;3,0;row;0,0;False;True;False;1,66699981689;True;0,533999919891
SSF1993w;experiment;2017-02-27-09-00-55;11,0;24,0;100;0,0;3,0;2,0;1,0;column;0,0;False;False;False;1,99900007248;True;1,47000002861
SSF1993w;experiment;2017-02-27-09-00-55;11,0;25,0;100;2,0;0,0;1,0;3,0;column;0,0;False;False;False;1,93400001526;True;0,891000032425
SSF1993w;experiment;2017-02-27-09-00-55;11,0;26,0;100;2,0;3,0;1,0;0,0;row;0,0;False;False;False;1,66599988937;True;0,998000144958
SSF1993w;experiment;2017-02-27-09-00-55;11,0;27,0;100;0,0;1,0;3,0;2,0;row;0,0;False;False;False;1,23399996758;True;1,26699995995
SSF1993w;experiment;2017-02-27-09-00-55;11,0;28,0;100;2,0;0,0;1,0;3,0;column;0,0;True;True;True;1,66699981689;True;1,13000011444
SSF1993w;experiment;2017-02-27-09-00-55;11,0;29,0;100;0,0;3,0;2,0;1,0;column;0,0;True;True;False;2,26600003242;False;0,766000032425
SSF1993w;experiment;2017-02-27-09-00-55;11,0;30,0;100;3,0;2,0;1,0;0,0;column;0,0;False;False;True;2,56699991226;False;1,09899997711
SSF1993w;experiment;2017-02-27-09-00-55;11,0;31,0;100;0,0;2,0;3,0;1,0;column;1,0;False;False;False;3,19999980927;True;0,936000108719
SSF1993w;experiment;2017-02-27-09-00-55;11,0;32,0;100;3,0;0,0;1,0;2,0;column;1,0;False;False;False;0,867000102997;True;0,589999914169
SSF1993w;experiment;2017-02-27-09-00-55;11,0;33,0;100;2,0;3,0;0,0;1,0;column;0,0;False;True;False;2,0649998188;True;1,0720000267
SSF1993w;experiment;2017-02-27-09-00-55;11,0;34,0;100;0,0;2,0;1,0;3,0;column;1,0;True;False;True;1,89999985695;True;1,0600001812
SSF1993w;experiment;2017-02-27-09-00-55;11,0;35,0;100;2,0;0,0;1,0;3,0;row;1,0;False;False;False;2,5;True;1,00099992752
SSF1993w;experiment;2017-02-27-09-00-55;11,0;36,0;100;1,0;0,0;2,0;3,0;column;1,0;False;False;False;1,33399987221;True;0,533999919891
SSF1993w;experiment;2017-02-27-09-00-55;11,0;37,0;100;1,0;2,0;0,0;3,0;row;0,0;False;True;False;0,899999856949;True;0,526000022888
SSF1993w;experiment;2017-02-27-09-00-55;11,0;38,0;100;2,0;1,0;0,0;3,0;row;1,0;False;False;True;1,59999990463;False;1,09700012207
SSF1993w;experiment;2017-02-27-09-00-55;11,0;39,0;100;3,0;0,0;2,0;1,0;column;0,0;True;False;True;2,40000009537;True;1,19499993324
SSF1993w;experiment;2017-02-27-09-00-55;11,0;40,0;100;2,0;0,0;1,0;3,0;column;1,0;True;False;True;1,86699986458;True;0,831000089645
SSF1993w;experiment;2017-02-27-09-00-55;11,0;41,0;100;0,0;2,0;1,0;3,0;row;0,0;False;False;False;2,39899992943;True;0,601000070572
SSF1993w;experiment;2017-02-27-09-00-55;11,0;42,0;100;3,0;0,0;1,0;2,0;row;0,0;True;True;True;1,5;True;0,966000080109
SSF1993w;experiment;2017-02-27-09-00-55;11,0;43,0;100;3,0;0,0;1,0;2,0;row;0,0;False;False;False;1,132999897;True;0,962000131607
SSF1993w;experiment;2017-02-27-09-00-55;11,0;44,0;100;2,0;0,0;1,0;3,0;row;1,0;True;False;True;1,53299999237;True;0,535000085831
SSF1993w;experiment;2017-02-27-09-00-55;11,0;45,0;100;3,0;0,0;2,0;1,0;column;1,0;False;True;False;0,867000102997;True;1,22499990463
SSF1993w;experiment;2017-02-27-09-00-55;11,0;46,0;100;1,0;2,0;0,0;3,0;column;0,0;False;False;False;2,26699995995;True;1,10100007057
SSF1993w;experiment;2017-02-27-09-00-55;11,0;47,0;100;2,0;1,0;0,0;3,0;row;0,0;False;False;False;1,33400011063;True;0,895999908447
SSF1993w;experiment;2017-02-27-09-00-55;11,0;48,0;100;2,0;1,0;3,0;0,0;column;0,0;True;False;True;1,16499996185;True;0,835999965668
SSF1993w;experiment;2017-02-27-09-00-55;12,0;1,0;1000;2,0;1,0;3,0;0,0;row;1,0;False;True;True;1,93299984932;False;1,257999897
SSF1993w;experiment;2017-02-27-09-00-55;12,0;2,0;1000;1,0;3,0;2,0;0,0;row;1,0;True;False;True;2,56599998474;True;0,835000038147
SSF1993w;experiment;2017-02-27-09-00-55;12,0;3,0;1000;3,0;2,0;1,0;0,0;row;1,0;False;False;False;0,933000087738;True;1,33100008965
SSF1993w;experiment;2017-02-27-09-00-55;12,0;4,0;1000;3,0;2,0;1,0;0,0;column;0,0;False;False;False;2,60599994659;True;0,856999874115
SSF1993w;experiment;2017-02-27-09-00-55;12,0;5,0;1000;1,0;3,0;0,0;2,0;row;1,0;True;True;True;1,63400006294;True;1,05799984932
SSF1993w;experiment;2017-02-27-09-00-55;12,0;6,0;1000;0,0;3,0;1,0;2,0;column;1,0;False;True;False;2,69799995422;True;0,796999931335
SSF1993w;experiment;2017-02-27-09-00-55;12,0;7,0;1000;3,0;0,0;2,0;1,0;row;0,0;True;False;False;1,80000019073;False;0,923000097275
SSF1993w;experiment;2017-02-27-09-00-55;12,0;8,0;1000;3,0;1,0;2,0;0,0;column;1,0;False;True;False;2,59899997711;True;0,5609998703
SSF1993w;experiment;2017-02-27-09-00-55;12,0;9,0;1000;0,0;2,0;1,0;3,0;column;0,0;False;False;False;2,632999897;True;0,924999952316
SSF1993w;experiment;2017-02-27-09-00-55;12,0;10,0;1000;2,0;0,0;1,0;3,0;row;1,0;False;True;False;1,367000103;True;0,960999965668
SSF1993w;experiment;2017-02-27-09-00-55;12,0;11,0;1000;0,0;3,0;2,0;1,0;row;0,0;False;False;False;3,43300008774;True;0,864000082016
SSF1993w;experiment;2017-02-27-09-00-55;12,0;12,0;1000;0,0;2,0;3,0;1,0;row;1,0;True;True;False;3,36699986458;False;0,598000049591
SSF1993w;experiment;2017-02-27-09-00-55;12,0;13,0;1000;2,0;3,0;1,0;0,0;column;1,0;False;True;False;2,63300013542;True;0,736000061035
SSF1993w;experiment;2017-02-27-09-00-55;12,0;14,0;1000;3,0;1,0;2,0;0,0;row;1,0;False;False;False;1,16700005531;True;0,867000102997
SSF1993w;experiment;2017-02-27-09-00-55;12,0;15,0;1000;3,0;1,0;2,0;0,0;row;0,0;True;False;True;1,66700005531;True;1,43099999428
SSF1993w;experiment;2017-02-27-09-00-55;12,0;16,0;1000;0,0;1,0;2,0;3,0;row;1,0;True;False;False;2,93400001526;False;1,09999990463
SSF1993w;experiment;2017-02-27-09-00-55;12,0;17,0;1000;2,0;1,0;0,0;3,0;row;1,0;True;True;True;2,73300004005;True;1,23200011253
SSF1993w;experiment;2017-02-27-09-00-55;12,0;18,0;1000;2,0;3,0;0,0;1,0;row;1,0;False;True;True;1,83299994469;False;1,40099978447
SSF1993w;experiment;2017-02-27-09-00-55;12,0;19,0;1000;3,0;0,0;2,0;1,0;row;0,0;False;False;True;2,16599988937;False;0,792999982834
SSF1993w;experiment;2017-02-27-09-00-55;12,0;20,0;1000;0,0;2,0;1,0;3,0;column;1,0;False;True;True;2,73399996758;False;1,32299995422
SSF1993w;experiment;2017-02-27-09-00-55;12,0;21,0;1000;2,0;3,0;1,0;0,0;row;1,0;False;True;False;3,76699995995;True;0,696000099182
SSF1993w;experiment;2017-02-27-09-00-55;12,0;22,0;1000;3,0;1,0;2,0;0,0;column;0,0;False;False;False;1,56599998474;True;0,602999925613
SSF1993w;experiment;2017-02-27-09-00-55;12,0;23,0;1000;0,0;3,0;1,0;2,0;row;1,0;False;False;False;0,933000087738;True;1,05900001526
SSF1993w;experiment;2017-02-27-09-00-55;12,0;24,0;1000;0,0;2,0;1,0;3,0;row;0,0;True;False;True;3,13300013542;True;0,826999902725
SSF1993w;experiment;2017-02-27-09-00-55;12,0;25,0;1000;0,0;3,0;1,0;2,0;column;0,0;True;True;True;1,5;True;1,46600008011
SSF1993w;experiment;2017-02-27-09-00-55;12,0;26,0;1000;3,0;1,0;0,0;2,0;row;1,0;True;False;True;1,367000103;True;0,858999967575
SSF1993w;experiment;2017-02-27-09-00-55;12,0;27,0;1000;0,0;1,0;2,0;3,0;row;0,0;False;False;False;1,43300008774;True;1,2990000248
SSF1993w;experiment;2017-02-27-09-00-55;12,0;28,0;1000;2,0;0,0;1,0;3,0;row;1,0;True;True;True;1,36699986458;True;1,50300002098
SSF1993w;experiment;2017-02-27-09-00-55;12,0;29,0;1000;2,0;3,0;0,0;1,0;column;1,0;False;False;False;1,06599998474;True;1,1970000267
SSF1993w;experiment;2017-02-27-09-00-55;12,0;30,0;1000;3,0;1,0;2,0;0,0;row;1,0;True;True;True;2,73300004005;True;0,929999828339
SSF1993w;experiment;2017-02-27-09-00-55;12,0;31,0;1000;2,0;1,0;0,0;3,0;row;1,0;False;True;True;2,56699991226;False;1,35800004005
SSF1993w;experiment;2017-02-27-09-00-55;12,0;32,0;1000;0,0;1,0;3,0;2,0;column;1,0;False;False;False;0,834000110626;True;0,767999887466
SSF1993w;experiment;2017-02-27-09-00-55;12,0;33,0;1000;3,0;0,0;1,0;2,0;column;0,0;True;True;True;1,63399982452;True;0,739000082016
SSF1993w;experiment;2017-02-27-09-00-55;12,0;34,0;1000;3,0;1,0;0,0;2,0;row;1,0;False;False;False;1,76699995995;True;1,46399998665
SSF1993w;experiment;2017-02-27-09-00-55;12,0;35,0;1000;0,0;2,0;3,0;1,0;row;1,0;False;False;False;1,10100007057;True;1,33000016212
SSF1993w;experiment;2017-02-27-09-00-55;12,0;36,0;1000;1,0;3,0;0,0;2,0;row;1,0;False;False;False;2,20000004768;True;1,16599988937
SSF1993w;experiment;2017-02-27-09-00-55;12,0;37,0;1000;2,0;3,0;0,0;1,0;column;0,0;False;True;True;2,63300013542;False;0,632999897003
SSF1993w;experiment;2017-02-27-09-00-55;12,0;38,0;1000;1,0;2,0;0,0;3,0;row;0,0;True;False;True;1,33500003815;True;1,39400005341
SSF1993w;experiment;2017-02-27-09-00-55;12,0;39,0;1000;3,0;2,0;0,0;1,0;column;0,0;False;False;False;3,70000004768;True;1,4350001812
SSF1993w;experiment;2017-02-27-09-00-55;12,0;40,0;1000;1,0;3,0;2,0;0,0;row;0,0;True;True;True;1,367000103;True;1,45500016212
SSF1993w;experiment;2017-02-27-09-00-55;12,0;41,0;1000;1,0;2,0;0,0;3,0;row;1,0;False;False;False;2,49800014496;True;0,865000009537
SSF1993w;experiment;2017-02-27-09-00-55;12,0;42,0;1000;1,0;2,0;0,0;3,0;column;1,0;True;False;True;1,60000014305;True;1,10100007057
SSF1993w;experiment;2017-02-27-09-00-55;12,0;43,0;1000;3,0;0,0;1,0;2,0;row;0,0;True;False;True;1,93400001526;True;0,628000020981
SSF1993w;experiment;2017-02-27-09-00-55;12,0;44,0;1000;2,0;0,0;3,0;1,0;row;1,0;True;True;True;2,19999980927;True;1,4240000248
SSF1993w;experiment;2017-02-27-09-00-55;12,0;45,0;1000;0,0;2,0;3,0;1,0;column;0,0;True;False;True;1,39899992943;True;0,631999969482
SSF1993w;experiment;2017-02-27-09-00-55;12,0;46,0;1000;3,0;2,0;0,0;1,0;row;1,0;False;True;False;1,23199987411;True;0,533999919891
SSF1993w;experiment;2017-02-27-09-00-55;12,0;47,0;1000;2,0;1,0;0,0;3,0;row;0,0;False;False;True;1,93400001526;False;1,33100008965
SSF1993w;experiment;2017-02-27-09-00-55;12,0;48,0;1000;3,0;0,0;1,0;2,0;row;1,0;True;True;True;1,632999897;True;1,25899982452
