Observer;Condition;SessionID;Block;Trial;COA;Color0;Color1;Color2;Color3;Target;Which;Match;FlipComplimentary;Response;RT;Correct;OnsetDelay
YWH1992w;experiment;2017-03-28-14-02-40;1,0;1,0;-100;3,0;1,0;0,0;2,0;column;0,0;False;True;False;1,48199987411;True;1,27200007439
YWH1992w;experiment;2017-03-28-14-02-40;1,0;2,0;-100;3,0;0,0;2,0;1,0;row;1,0;False;True;True;1,41699981689;False;1,2389998436
YWH1992w;experiment;2017-03-28-14-02-40;1,0;3,0;-100;0,0;2,0;1,0;3,0;row;0,0;True;False;False;1,24900007248;False;0,867000102997
YWH1992w;experiment;2017-03-28-14-02-40;1,0;4,0;-100;2,0;3,0;0,0;1,0;column;1,0;False;False;True;1,68099999428;False;1,03900003433
YWH1992w;experiment;2017-03-28-14-02-40;1,0;5,0;-100;0,0;1,0;2,0;3,0;column;0,0;False;True;True;1,61699986458;False;1,40199995041
YWH1992w;experiment;2017-03-28-14-02-40;1,0;6,0;-100;2,0;1,0;3,0;0,0;column;1,0;True;True;False;2,21700000763;False;1,03299999237
YWH1992w;experiment;2017-03-28-14-02-40;1,0;7,0;-100;1,0;0,0;2,0;3,0;column;1,0;True;False;True;1,84999990463;True;0,830999851227
YWH1992w;experiment;2017-03-28-14-02-40;1,0;8,0;-100;2,0;1,0;3,0;0,0;column;0,0;True;False;True;1,48399996758;True;1,05599999428
YWH1992w;experiment;2017-03-28-14-02-40;1,0;9,0;-100;3,0;1,0;2,0;0,0;row;1,0;True;True;True;2,25;True;0,970999956131
YWH1992w;experiment;2017-03-28-14-02-40;1,0;10,0;-100;3,0;1,0;2,0;0,0;column;0,0;True;False;True;1,41699981689;True;0,636000156403
YWH1992w;experiment;2017-03-28-14-02-40;1,0;11,0;-100;3,0;1,0;2,0;0,0;row;1,0;False;True;False;1,48399996758;True;0,9359998703
YWH1992w;experiment;2017-03-28-14-02-40;1,0;12,0;-100;2,0;1,0;0,0;3,0;column;0,0;True;True;True;1,61500000954;True;0,962000131607
YWH1992w;experiment;2017-03-28-14-02-40;1,0;13,0;-100;0,0;3,0;2,0;1,0;row;1,0;True;False;False;1,48099994659;False;1,3180000782
YWH1992w;experiment;2017-03-28-14-02-40;1,0;14,0;-100;1,0;3,0;0,0;2,0;row;0,0;False;False;False;2,14700007439;True;1,16500020027
YWH1992w;experiment;2017-03-28-14-02-40;1,0;15,0;-100;2,0;0,0;1,0;3,0;column;1,0;True;False;False;1,64899992943;False;1,1930000782
YWH1992w;experiment;2017-03-28-14-02-40;1,0;16,0;-100;2,0;3,0;1,0;0,0;row;1,0;True;False;True;2,14700007439;True;1,47199988365
YWH1992w;experiment;2017-03-28-14-02-40;1,0;17,0;-100;0,0;3,0;1,0;2,0;column;1,0;False;True;True;3,28200006485;False;0,669999837875
YWH1992w;experiment;2017-03-28-14-02-40;1,0;18,0;-100;2,0;3,0;0,0;1,0;row;1,0;True;True;True;2,48399996758;True;1,16799998283
YWH1992w;experiment;2017-03-28-14-02-40;1,0;19,0;-100;2,0;0,0;3,0;1,0;column;1,0;False;True;False;1,65000009537;True;0,836999893188
YWH1992w;experiment;2017-03-28-14-02-40;1,0;20,0;-100;1,0;2,0;3,0;0,0;row;1,0;False;False;False;1,28399991989;True;0,596999883652
YWH1992w;experiment;2017-03-28-14-02-40;1,0;21,0;-100;3,0;2,0;0,0;1,0;column;1,0;False;False;False;1,91700005531;True;1,42900013924
YWH1992w;experiment;2017-03-28-14-02-40;1,0;22,0;-100;1,0;2,0;0,0;3,0;row;1,0;False;False;False;2,21600008011;True;0,671999931335
YWH1992w;experiment;2017-03-28-14-02-40;1,0;23,0;-100;0,0;1,0;3,0;2,0;row;1,0;False;True;True;2,11199998856;False;0,996999979019
YWH1992w;experiment;2017-03-28-14-02-40;1,0;24,0;-100;2,0;1,0;3,0;0,0;column;0,0;False;True;False;1,28399991989;True;0,570000171661
YWH1992w;experiment;2017-03-28-14-02-40;1,0;25,0;-100;0,0;2,0;1,0;3,0;row;1,0;False;True;False;1,71600008011;True;0,529000043869
YWH1992w;experiment;2017-03-28-14-02-40;1,0;26,0;-100;3,0;1,0;0,0;2,0;column;1,0;True;False;False;1,5150001049;False;0,832999944687
YWH1992w;experiment;2017-03-28-14-02-40;1,0;27,0;-100;2,0;0,0;3,0;1,0;column;0,0;False;False;False;2,08400011063;True;1,1289999485
YWH1992w;experiment;2017-03-28-14-02-40;1,0;28,0;-100;2,0;0,0;1,0;3,0;row;1,0;True;False;True;2,48300004005;True;0,936000108719
YWH1992w;experiment;2017-03-28-14-02-40;1,0;29,0;-100;0,0;1,0;3,0;2,0;row;1,0;True;False;True;1,34800004959;True;0,927999973297
YWH1992w;experiment;2017-03-28-14-02-40;1,0;30,0;-100;1,0;3,0;2,0;0,0;column;0,0;False;False;True;1,84899997711;False;0,967000007629
YWH1992w;experiment;2017-03-28-14-02-40;1,0;31,0;-100;1,0;3,0;0,0;2,0;column;1,0;True;False;True;1,35099983215;True;1,36299991608
YWH1992w;experiment;2017-03-28-14-02-40;1,0;32,0;-100;1,0;2,0;0,0;3,0;column;0,0;False;False;True;3,21600008011;False;1,49699997902
YWH1992w;experiment;2017-03-28-14-02-40;1,0;33,0;-100;3,0;2,0;1,0;0,0;row;0,0;False;True;False;3,01600003242;True;1,39299988747
YWH1992w;experiment;2017-03-28-14-02-40;1,0;34,0;-100;1,0;2,0;0,0;3,0;row;0,0;False;False;False;3,25100016594;True;1,49399995804
YWH1992w;experiment;2017-03-28-14-02-40;1,0;35,0;-100;1,0;0,0;2,0;3,0;column;0,0;True;True;True;1,51600003242;True;0,566999912262
YWH1992w;experiment;2017-03-28-14-02-40;1,0;36,0;-100;2,0;3,0;1,0;0,0;row;1,0;False;True;True;3,21600008011;False;1,13000011444
YWH1992w;experiment;2017-03-28-14-02-40;1,0;37,0;-100;2,0;0,0;1,0;3,0;row;0,0;False;False;False;3,44899988174;True;1,40000009537
YWH1992w;experiment;2017-03-28-14-02-40;1,0;38,0;-100;1,0;0,0;3,0;2,0;row;0,0;True;False;True;2,21700000763;True;1,30399990082
YWH1992w;experiment;2017-03-28-14-02-40;1,0;39,0;-100;1,0;3,0;0,0;2,0;row;1,0;False;False;False;1,34999990463;True;0,733000040054
YWH1992w;experiment;2017-03-28-14-02-40;1,0;40,0;-100;2,0;0,0;3,0;1,0;row;1,0;False;False;False;2,08500003815;True;0,726999998093
YWH1992w;experiment;2017-03-28-14-02-40;1,0;41,0;-100;2,0;1,0;3,0;0,0;row;1,0;False;True;False;3,94600009918;True;1,47200012207
YWH1992w;experiment;2017-03-28-14-02-40;1,0;42,0;-100;3,0;1,0;0,0;2,0;column;1,0;False;False;True;3,08300018311;False;0,569000005722
YWH1992w;experiment;2017-03-28-14-02-40;1,0;43,0;-100;1,0;3,0;2,0;0,0;row;1,0;True;False;False;2,24899983406;False;0,934000015259
YWH1992w;experiment;2017-03-28-14-02-40;1,0;44,0;-100;1,0;0,0;2,0;3,0;row;0,0;True;True;False;2,31500005722;False;0,863000154495
YWH1992w;experiment;2017-03-28-14-02-40;1,0;45,0;-100;2,0;0,0;3,0;1,0;row;0,0;False;True;True;1,51699995995;False;1,10100007057
YWH1992w;experiment;2017-03-28-14-02-40;1,0;46,0;-100;0,0;1,0;3,0;2,0;row;0,0;False;True;False;2,64899992943;True;0,529000043869
YWH1992w;experiment;2017-03-28-14-02-40;1,0;47,0;-100;1,0;3,0;0,0;2,0;row;1,0;True;True;True;2,68299984932;True;1,00300002098
YWH1992w;experiment;2017-03-28-14-02-40;1,0;48,0;-100;2,0;0,0;1,0;3,0;column;1,0;False;True;False;1,28299999237;True;0,697000026703
YWH1992w;experiment;2017-03-28-14-02-40;2,0;1,0;100;2,0;1,0;3,0;0,0;column;0,0;True;False;True;1,26600003242;True;1,40300011635
YWH1992w;experiment;2017-03-28-14-02-40;2,0;2,0;100;1,0;2,0;0,0;3,0;column;1,0;False;True;False;3,46600008011;True;0,569999933243
YWH1992w;experiment;2017-03-28-14-02-40;2,0;3,0;100;1,0;3,0;0,0;2,0;column;0,0;True;True;True;2,43299984932;True;0,898999929428
YWH1992w;experiment;2017-03-28-14-02-40;2,0;4,0;100;0,0;3,0;2,0;1,0;column;1,0;False;False;False;1,10100007057;True;1,50300002098
YWH1992w;experiment;2017-03-28-14-02-40;2,0;5,0;100;1,0;2,0;0,0;3,0;row;0,0;False;True;True;1,59999990463;False;0,922999858856
YWH1992w;experiment;2017-03-28-14-02-40;2,0;6,0;100;3,0;2,0;0,0;1,0;row;1,0;True;True;True;1,49799990654;True;1,4279999733
YWH1992w;experiment;2017-03-28-14-02-40;2,0;7,0;100;1,0;0,0;2,0;3,0;column;1,0;True;True;False;1,96700000763;False;1,46099996567
YWH1992w;experiment;2017-03-28-14-02-40;2,0;8,0;100;0,0;2,0;3,0;1,0;column;1,0;True;False;True;1,66600012779;True;1,32899999619
YWH1992w;experiment;2017-03-28-14-02-40;2,0;9,0;100;2,0;1,0;0,0;3,0;column;0,0;True;False;False;2,70000004768;False;1,36199998856
YWH1992w;experiment;2017-03-28-14-02-40;2,0;10,0;100;0,0;1,0;3,0;2,0;column;0,0;True;True;False;1,89999985695;False;1,20300006866
YWH1992w;experiment;2017-03-28-14-02-40;2,0;11,0;100;0,0;2,0;1,0;3,0;column;1,0;True;True;True;1,36599993706;True;1,32899999619
YWH1992w;experiment;2017-03-28-14-02-40;2,0;12,0;100;2,0;1,0;0,0;3,0;row;1,0;False;True;False;3,132999897;True;0,796000003815
YWH1992w;experiment;2017-03-28-14-02-40;2,0;13,0;100;3,0;0,0;2,0;1,0;column;1,0;True;False;True;1,46600008011;True;0,756999969482
YWH1992w;experiment;2017-03-28-14-02-40;2,0;14,0;100;0,0;3,0;1,0;2,0;row;0,0;False;False;False;1,03299999237;True;0,963999986649
YWH1992w;experiment;2017-03-28-14-02-40;2,0;15,0;100;1,0;0,0;2,0;3,0;column;1,0;False;False;False;2,7349998951;True;0,563999891281
YWH1992w;experiment;2017-03-28-14-02-40;2,0;16,0;100;1,0;3,0;2,0;0,0;row;0,0;True;True;True;1,70000004768;True;1,43600010872
YWH1992w;experiment;2017-03-28-14-02-40;2,0;17,0;100;3,0;2,0;1,0;0,0;column;1,0;False;True;False;1,36600017548;True;1,46799993515
YWH1992w;experiment;2017-03-28-14-02-40;2,0;18,0;100;0,0;3,0;1,0;2,0;column;1,0;True;True;True;1,59999990463;True;0,535000085831
YWH1992w;experiment;2017-03-28-14-02-40;2,0;19,0;100;0,0;2,0;3,0;1,0;column;0,0;True;True;True;4,06399989128;True;1,33600020409
YWH1992w;experiment;2017-03-28-14-02-40;2,0;20,0;100;3,0;1,0;0,0;2,0;column;1,0;False;False;False;1,43099999428;True;0,631000041962
YWH1992w;experiment;2017-03-28-14-02-40;2,0;21,0;100;2,0;0,0;1,0;3,0;column;1,0;False;True;False;0,999000072479;True;1,02800011635
YWH1992w;experiment;2017-03-28-14-02-40;2,0;22,0;100;0,0;3,0;1,0;2,0;row;0,0;True;False;True;1,23300004005;True;1,49599981308
YWH1992w;experiment;2017-03-28-14-02-40;2,0;23,0;100;3,0;2,0;1,0;0,0;column;1,0;True;False;False;2,23300004005;False;0,799999952316
YWH1992w;experiment;2017-03-28-14-02-40;2,0;24,0;100;1,0;2,0;3,0;0,0;column;0,0;False;True;False;1,16700005531;True;1,46200013161
YWH1992w;experiment;2017-03-28-14-02-40;2,0;25,0;100;0,0;2,0;3,0;1,0;column;1,0;False;True;False;3,66600012779;True;0,598000049591
YWH1992w;experiment;2017-03-28-14-02-40;2,0;26,0;100;3,0;1,0;2,0;0,0;row;1,0;True;True;True;2,63199996948;True;1,35899996758
YWH1992w;experiment;2017-03-28-14-02-40;2,0;27,0;100;1,0;2,0;3,0;0,0;column;1,0;False;True;False;0,700000047684;True;0,899999856949
YWH1992w;experiment;2017-03-28-14-02-40;2,0;28,0;100;2,0;0,0;1,0;3,0;row;0,0;False;True;False;2,69799995422;True;0,628999948502
YWH1992w;experiment;2017-03-28-14-02-40;2,0;29,0;100;2,0;1,0;0,0;3,0;row;0,0;False;True;True;1,5;False;1,5
YWH1992w;experiment;2017-03-28-14-02-40;2,0;30,0;100;2,0;1,0;0,0;3,0;row;1,0;True;False;True;1,46700000763;True;0,894999980927
YWH1992w;experiment;2017-03-28-14-02-40;2,0;31,0;100;3,0;0,0;2,0;1,0;column;0,0;True;False;True;2,43400001526;True;0,833999872208
YWH1992w;experiment;2017-03-28-14-02-40;2,0;32,0;100;1,0;2,0;3,0;0,0;column;1,0;True;True;True;1,80099987984;True;1,33200001717
YWH1992w;experiment;2017-03-28-14-02-40;2,0;33,0;100;2,0;3,0;1,0;0,0;row;1,0;True;True;True;1,73399996758;True;0,935000181198
YWH1992w;experiment;2017-03-28-14-02-40;2,0;34,0;100;2,0;3,0;0,0;1,0;row;0,0;False;False;False;1,23300004005;True;1,3029999733
YWH1992w;experiment;2017-03-28-14-02-40;2,0;35,0;100;2,0;0,0;3,0;1,0;column;0,0;True;True;True;1,56500005722;True;1,39499998093
YWH1992w;experiment;2017-03-28-14-02-40;2,0;36,0;100;1,0;0,0;3,0;2,0;column;0,0;True;False;False;2,66699981689;False;1,4359998703
YWH1992w;experiment;2017-03-28-14-02-40;2,0;37,0;100;2,0;3,0;0,0;1,0;row;0,0;True;False;True;1,63400006294;True;1,36800003052
YWH1992w;experiment;2017-03-28-14-02-40;2,0;38,0;100;0,0;1,0;3,0;2,0;row;1,0;True;False;True;2,66599988937;True;1,40199995041
YWH1992w;experiment;2017-03-28-14-02-40;2,0;39,0;100;0,0;1,0;2,0;3,0;column;1,0;True;True;True;1,63300013542;True;0,796000003815
YWH1992w;experiment;2017-03-28-14-02-40;2,0;40,0;100;3,0;1,0;0,0;2,0;column;1,0;True;False;True;1,632999897;True;0,931999921799
YWH1992w;experiment;2017-03-28-14-02-40;2,0;41,0;100;3,0;2,0;0,0;1,0;row;0,0;False;False;False;2,66499996185;True;1,49599981308
YWH1992w;experiment;2017-03-28-14-02-40;2,0;42,0;100;3,0;1,0;0,0;2,0;row;0,0;False;True;False;1,96700000763;True;1,00200009346
YWH1992w;experiment;2017-03-28-14-02-40;2,0;43,0;100;1,0;2,0;3,0;0,0;row;0,0;False;True;False;2,26399993896;True;1,37199997902
YWH1992w;experiment;2017-03-28-14-02-40;2,0;44,0;100;3,0;2,0;0,0;1,0;row;1,0;False;True;False;2,43400001526;True;0,796000003815
YWH1992w;experiment;2017-03-28-14-02-40;2,0;45,0;100;2,0;1,0;3,0;0,0;row;0,0;False;True;False;1,63400006294;True;1,32799983025
YWH1992w;experiment;2017-03-28-14-02-40;2,0;46,0;100;3,0;2,0;1,0;0,0;column;0,0;False;True;False;1,60000014305;True;1,02600002289
YWH1992w;experiment;2017-03-28-14-02-40;2,0;47,0;100;1,0;2,0;3,0;0,0;row;1,0;False;False;True;1,43200016022;False;0,534999847412
YWH1992w;experiment;2017-03-28-14-02-40;2,0;48,0;100;2,0;3,0;1,0;0,0;column;1,0;False;False;False;2,56699991226;True;0,99799990654
YWH1992w;experiment;2017-03-28-14-02-40;3,0;1,0;1000;1,0;2,0;0,0;3,0;row;0,0;True;True;False;2,56599998474;False;1,49400019646
YWH1992w;experiment;2017-03-28-14-02-40;3,0;2,0;1000;2,0;3,0;0,0;1,0;column;1,0;True;False;True;1,53299999237;True;0,527000188828
YWH1992w;experiment;2017-03-28-14-02-40;3,0;3,0;1000;1,0;0,0;2,0;3,0;row;1,0;True;False;True;2,79999995232;True;0,53400015831
YWH1992w;experiment;2017-03-28-14-02-40;3,0;4,0;1000;2,0;1,0;0,0;3,0;column;1,0;True;True;True;3,59699988365;True;0,769999980927
YWH1992w;experiment;2017-03-28-14-02-40;3,0;5,0;1000;2,0;0,0;3,0;1,0;row;0,0;False;False;True;1,73300004005;False;1,23599982262
YWH1992w;experiment;2017-03-28-14-02-40;3,0;6,0;1000;1,0;3,0;0,0;2,0;row;0,0;True;False;True;2,80099987984;True;1,49599981308
YWH1992w;experiment;2017-03-28-14-02-40;3,0;7,0;1000;1,0;3,0;2,0;0,0;column;0,0;False;False;False;3,65799999237;True;1,16699981689
YWH1992w;experiment;2017-03-28-14-02-40;3,0;8,0;1000;3,0;0,0;1,0;2,0;column;0,0;True;False;True;2,56699991226;True;1,03699994087
YWH1992w;experiment;2017-03-28-14-02-40;3,0;9,0;1000;3,0;1,0;2,0;0,0;column;1,0;False;False;False;2,36599993706;True;0,90299987793
YWH1992w;experiment;2017-03-28-14-02-40;3,0;10,0;1000;1,0;0,0;2,0;3,0;row;0,0;False;True;False;2,0;True;0,563999891281
YWH1992w;experiment;2017-03-28-14-02-40;3,0;11,0;1000;1,0;3,0;2,0;0,0;row;0,0;True;False;True;1,53099989891;True;1,3630001545
YWH1992w;experiment;2017-03-28-14-02-40;3,0;12,0;1000;2,0;1,0;0,0;3,0;column;0,0;True;False;False;2,73300004005;False;0,763000011444
YWH1992w;experiment;2017-03-28-14-02-40;3,0;13,0;1000;0,0;3,0;1,0;2,0;column;0,0;True;False;True;2,86599993706;True;1,10399985313
YWH1992w;experiment;2017-03-28-14-02-40;3,0;14,0;1000;2,0;0,0;3,0;1,0;column;0,0;False;False;True;3,56500005722;False;0,825000047684
YWH1992w;experiment;2017-03-28-14-02-40;3,0;15,0;1000;1,0;2,0;0,0;3,0;row;1,0;True;False;True;2,83299994469;True;0,503999948502
YWH1992w;experiment;2017-03-28-14-02-40;3,0;16,0;1000;2,0;3,0;0,0;1,0;column;0,0;False;False;False;1,26699995995;True;0,601000070572
YWH1992w;experiment;2017-03-28-14-02-40;3,0;17,0;1000;0,0;1,0;3,0;2,0;column;0,0;True;False;True;1,59899997711;True;1,16300010681
YWH1992w;experiment;2017-03-28-14-02-40;3,0;18,0;1000;0,0;2,0;1,0;3,0;row;0,0;True;False;True;3,29799985886;True;0,833000183105
YWH1992w;experiment;2017-03-28-14-02-40;3,0;19,0;1000;2,0;3,0;0,0;1,0;row;1,0;False;True;False;1,76600003242;True;1,00099992752
YWH1992w;experiment;2017-03-28-14-02-40;3,0;20,0;1000;2,0;3,0;0,0;1,0;row;1,0;True;True;True;1,23399996758;True;1,43499994278
YWH1992w;experiment;2017-03-28-14-02-40;3,0;21,0;1000;3,0;2,0;1,0;0,0;row;0,0;False;True;False;0,934000015259;True;1,17000007629
YWH1992w;experiment;2017-03-28-14-02-40;3,0;22,0;1000;0,0;2,0;3,0;1,0;row;0,0;True;False;True;1,76699995995;True;1,13599991798
YWH1992w;experiment;2017-03-28-14-02-40;3,0;23,0;1000;3,0;2,0;0,0;1,0;row;1,0;True;True;True;1,16300010681;True;1,39600014687
YWH1992w;experiment;2017-03-28-14-02-40;3,0;24,0;1000;0,0;2,0;1,0;3,0;column;0,0;True;True;True;1,5;True;1,09500002861
YWH1992w;experiment;2017-03-28-14-02-40;3,0;25,0;1000;0,0;1,0;3,0;2,0;column;1,0;False;True;False;2,66599988937;True;0,805999994278
YWH1992w;experiment;2017-03-28-14-02-40;3,0;26,0;1000;2,0;0,0;1,0;3,0;row;1,0;True;True;True;2,66400003433;True;1,32299995422
YWH1992w;experiment;2017-03-28-14-02-40;3,0;27,0;1000;3,0;2,0;0,0;1,0;row;0,0;True;True;True;1,90000009537;True;0,833999872208
YWH1992w;experiment;2017-03-28-14-02-40;3,0;28,0;1000;1,0;0,0;3,0;2,0;column;0,0;False;False;False;1,93299984932;True;1,4240000248
YWH1992w;experiment;2017-03-28-14-02-40;3,0;29,0;1000;0,0;3,0;2,0;1,0;column;1,0;True;True;True;1,29999995232;True;1,23199987411
YWH1992w;experiment;2017-03-28-14-02-40;3,0;30,0;1000;2,0;1,0;3,0;0,0;column;1,0;True;False;True;1,76599979401;True;0,861000061035
YWH1992w;experiment;2017-03-28-14-02-40;3,0;31,0;1000;0,0;2,0;3,0;1,0;column;1,0;False;True;False;1,60000014305;True;0,894999980927
YWH1992w;experiment;2017-03-28-14-02-40;3,0;32,0;1000;2,0;3,0;1,0;0,0;row;1,0;True;True;True;1,33099985123;True;0,636000156403
YWH1992w;experiment;2017-03-28-14-02-40;3,0;33,0;1000;0,0;1,0;3,0;2,0;row;0,0;False;False;False;1,0;True;1,30399990082
YWH1992w;experiment;2017-03-28-14-02-40;3,0;34,0;1000;2,0;0,0;3,0;1,0;column;1,0;True;True;True;1,73399996758;True;0,730000019073
YWH1992w;experiment;2017-03-28-14-02-40;3,0;35,0;1000;0,0;3,0;2,0;1,0;column;1,0;False;True;False;1,80100011826;True;1,16700005531
YWH1992w;experiment;2017-03-28-14-02-40;3,0;36,0;1000;1,0;0,0;3,0;2,0;row;1,0;True;False;True;1,03299999237;True;1,29899978638
YWH1992w;experiment;2017-03-28-14-02-40;3,0;37,0;1000;2,0;3,0;1,0;0,0;column;0,0;False;True;False;1,0;True;0,700999975204
YWH1992w;experiment;2017-03-28-14-02-40;3,0;38,0;1000;0,0;3,0;2,0;1,0;row;0,0;True;True;True;0,899999856949;True;1,27200007439
YWH1992w;experiment;2017-03-28-14-02-40;3,0;39,0;1000;0,0;1,0;3,0;2,0;row;0,0;True;False;False;2,29999995232;False;1,50400018692
YWH1992w;experiment;2017-03-28-14-02-40;3,0;40,0;1000;0,0;3,0;1,0;2,0;row;1,0;False;False;True;1,33299994469;False;0,662000179291
YWH1992w;experiment;2017-03-28-14-02-40;3,0;41,0;1000;0,0;3,0;1,0;2,0;column;0,0;False;False;False;1,10099983215;True;0,661000013351
YWH1992w;experiment;2017-03-28-14-02-40;3,0;42,0;1000;0,0;2,0;1,0;3,0;column;1,0;False;True;False;1,53299999237;True;1,03099989891
YWH1992w;experiment;2017-03-28-14-02-40;3,0;43,0;1000;2,0;1,0;3,0;0,0;column;0,0;True;True;True;1,83299994469;True;0,736999988556
YWH1992w;experiment;2017-03-28-14-02-40;3,0;44,0;1000;2,0;0,0;1,0;3,0;column;1,0;False;True;False;0,867000102997;True;0,53400015831
YWH1992w;experiment;2017-03-28-14-02-40;3,0;45,0;1000;1,0;2,0;3,0;0,0;column;0,0;True;False;True;1,53299999237;True;1,23000001907
YWH1992w;experiment;2017-03-28-14-02-40;3,0;46,0;1000;0,0;2,0;1,0;3,0;column;0,0;False;False;False;1,73399996758;True;0,690999984741
YWH1992w;experiment;2017-03-28-14-02-40;3,0;47,0;1000;1,0;3,0;2,0;0,0;column;1,0;False;False;False;2,23300004005;True;1,10299992561
YWH1992w;experiment;2017-03-28-14-02-40;3,0;48,0;1000;3,0;2,0;0,0;1,0;column;1,0;False;True;False;2,63300013542;True;1,16700005531
YWH1992w;experiment;2017-03-28-14-02-40;4,0;1,0;100;1,0;3,0;2,0;0,0;row;1,0;True;True;True;1,59899997711;True;0,697000026703
YWH1992w;experiment;2017-03-28-14-02-40;4,0;2,0;100;2,0;3,0;1,0;0,0;column;0,0;False;True;False;1,83299994469;True;0,769000053406
YWH1992w;experiment;2017-03-28-14-02-40;4,0;3,0;100;1,0;0,0;2,0;3,0;row;0,0;True;False;True;2,22999978065;True;1,16100001335
YWH1992w;experiment;2017-03-28-14-02-40;4,0;4,0;100;2,0;3,0;0,0;1,0;column;0,0;False;True;False;1,19999980927;True;0,568000078201
YWH1992w;experiment;2017-03-28-14-02-40;4,0;5,0;100;2,0;1,0;3,0;0,0;column;1,0;True;False;True;2,96600008011;True;1,43099999428
YWH1992w;experiment;2017-03-28-14-02-40;4,0;6,0;100;3,0;0,0;1,0;2,0;column;1,0;False;False;True;2,39700007439;False;1,02500009537
YWH1992w;experiment;2017-03-28-14-02-40;4,0;7,0;100;1,0;3,0;2,0;0,0;column;0,0;True;True;False;2,99899983406;False;1,09500002861
YWH1992w;experiment;2017-03-28-14-02-40;4,0;8,0;100;2,0;3,0;1,0;0,0;row;0,0;False;True;False;1,367000103;True;1,36100006104
YWH1992w;experiment;2017-03-28-14-02-40;4,0;9,0;100;0,0;2,0;1,0;3,0;column;0,0;True;False;True;2,06299996376;True;0,828999996185
YWH1992w;experiment;2017-03-28-14-02-40;4,0;10,0;100;2,0;1,0;3,0;0,0;row;1,0;True;False;True;1,93300008774;True;0,598999977112
YWH1992w;experiment;2017-03-28-14-02-40;4,0;11,0;100;2,0;0,0;1,0;3,0;column;1,0;True;False;True;1,66700005531;True;0,770999908447
YWH1992w;experiment;2017-03-28-14-02-40;4,0;12,0;100;0,0;1,0;3,0;2,0;column;0,0;False;False;False;2,20000004768;True;1,43800020218
YWH1992w;experiment;2017-03-28-14-02-40;4,0;13,0;100;0,0;3,0;2,0;1,0;column;1,0;True;True;True;1,7990000248;True;1,26900005341
YWH1992w;experiment;2017-03-28-14-02-40;4,0;14,0;100;1,0;0,0;3,0;2,0;column;1,0;False;True;False;0,999000072479;True;0,593000173569
YWH1992w;experiment;2017-03-28-14-02-40;4,0;15,0;100;0,0;2,0;1,0;3,0;column;1,0;False;True;False;2,53299999237;True;0,732000112534
YWH1992w;experiment;2017-03-28-14-02-40;4,0;16,0;100;1,0;3,0;0,0;2,0;column;1,0;True;False;True;2,13300013542;True;0,701999902725
YWH1992w;experiment;2017-03-28-14-02-40;4,0;17,0;100;2,0;1,0;0,0;3,0;column;0,0;False;False;False;1,06699991226;True;1,15899991989
YWH1992w;experiment;2017-03-28-14-02-40;4,0;18,0;100;0,0;3,0;2,0;1,0;column;0,0;True;True;True;2,93099999428;True;0,763000011444
YWH1992w;experiment;2017-03-28-14-02-40;4,0;19,0;100;0,0;3,0;2,0;1,0;row;1,0;False;False;False;0,799999952316;True;0,535000085831
YWH1992w;experiment;2017-03-28-14-02-40;4,0;20,0;100;2,0;3,0;0,0;1,0;column;1,0;True;False;True;2,66700005531;True;0,736000061035
YWH1992w;experiment;2017-03-28-14-02-40;4,0;21,0;100;3,0;0,0;2,0;1,0;row;1,0;False;True;False;2,43400001526;True;0,696000099182
YWH1992w;experiment;2017-03-28-14-02-40;4,0;22,0;100;0,0;2,0;3,0;1,0;row;1,0;True;False;False;2,10099983215;False;0,738000154495
YWH1992w;experiment;2017-03-28-14-02-40;4,0;23,0;100;3,0;0,0;2,0;1,0;row;0,0;False;True;True;2,13199996948;False;1,43000006676
YWH1992w;experiment;2017-03-28-14-02-40;4,0;24,0;100;2,0;0,0;1,0;3,0;column;0,0;False;False;False;2,09799981117;True;1,23000001907
YWH1992w;experiment;2017-03-28-14-02-40;4,0;25,0;100;3,0;2,0;0,0;1,0;row;0,0;True;True;True;2,87700009346;True;0,701999902725
YWH1992w;experiment;2017-03-28-14-02-40;4,0;26,0;100;3,0;2,0;1,0;0,0;row;1,0;False;True;False;1,02999997139;True;0,925999879837
YWH1992w;experiment;2017-03-28-14-02-40;4,0;27,0;100;2,0;0,0;3,0;1,0;column;1,0;False;False;False;1,93400001526;True;1,43000006676
YWH1992w;experiment;2017-03-28-14-02-40;4,0;28,0;100;0,0;1,0;2,0;3,0;row;0,0;True;False;True;2,46700000763;True;0,9359998703
YWH1992w;experiment;2017-03-28-14-02-40;4,0;29,0;100;1,0;0,0;3,0;2,0;column;0,0;False;False;False;2,23300004005;True;0,894999980927
YWH1992w;experiment;2017-03-28-14-02-40;4,0;30,0;100;0,0;1,0;3,0;2,0;column;1,0;True;False;True;1,66700005531;True;0,599999904633
YWH1992w;experiment;2017-03-28-14-02-40;4,0;31,0;100;2,0;0,0;3,0;1,0;row;0,0;False;False;False;2,9319999218;True;0,834000110626
YWH1992w;experiment;2017-03-28-14-02-40;4,0;32,0;100;0,0;2,0;3,0;1,0;row;0,0;True;True;True;3,13199996948;True;1,30100011826
YWH1992w;experiment;2017-03-28-14-02-40;4,0;33,0;100;2,0;3,0;0,0;1,0;row;1,0;False;False;False;1,20000004768;True;1,2009999752
YWH1992w;experiment;2017-03-28-14-02-40;4,0;34,0;100;0,0;2,0;1,0;3,0;row;0,0;False;True;False;3,19900012016;True;0,603000164032
YWH1992w;experiment;2017-03-28-14-02-40;4,0;35,0;100;0,0;1,0;2,0;3,0;row;1,0;True;False;True;1,867000103;True;0,728999853134
YWH1992w;experiment;2017-03-28-14-02-40;4,0;36,0;100;0,0;2,0;1,0;3,0;row;1,0;True;False;True;3,39899992943;True;1,36699986458
YWH1992w;experiment;2017-03-28-14-02-40;4,0;37,0;100;1,0;2,0;0,0;3,0;row;1,0;False;True;False;1,70000004768;True;0,865000009537
YWH1992w;experiment;2017-03-28-14-02-40;4,0;38,0;100;1,0;0,0;3,0;2,0;row;1,0;False;False;False;3,03299999237;True;1,49699997902
YWH1992w;experiment;2017-03-28-14-02-40;4,0;39,0;100;0,0;3,0;1,0;2,0;row;1,0;True;False;True;2,30000019073;True;1,0640001297
YWH1992w;experiment;2017-03-28-14-02-40;4,0;40,0;100;3,0;0,0;2,0;1,0;row;0,0;True;False;False;2,20000004768;False;1,29299998283
YWH1992w;experiment;2017-03-28-14-02-40;4,0;41,0;100;2,0;0,0;1,0;3,0;row;1,0;True;False;False;3,16499996185;False;1,25500011444
YWH1992w;experiment;2017-03-28-14-02-40;4,0;42,0;100;3,0;1,0;2,0;0,0;row;0,0;True;True;True;2,1289999485;True;1,29700016975
YWH1992w;experiment;2017-03-28-14-02-40;4,0;43,0;100;1,0;2,0;3,0;0,0;row;1,0;True;True;True;2,43099999428;True;1,49500012398
YWH1992w;experiment;2017-03-28-14-02-40;4,0;44,0;100;0,0;1,0;2,0;3,0;row;0,0;False;False;False;2,46599984169;True;0,668999910355
YWH1992w;experiment;2017-03-28-14-02-40;4,0;45,0;100;3,0;1,0;2,0;0,0;column;0,0;True;True;True;1,53500008583;True;0,569000005722
YWH1992w;experiment;2017-03-28-14-02-40;4,0;46,0;100;2,0;3,0;1,0;0,0;column;0,0;True;False;True;2,56500005722;True;1,03799986839
YWH1992w;experiment;2017-03-28-14-02-40;4,0;47,0;100;3,0;0,0;2,0;1,0;column;1,0;False;True;False;1,132999897;True;0,5640001297
YWH1992w;experiment;2017-03-28-14-02-40;4,0;48,0;100;3,0;2,0;1,0;0,0;row;0,0;False;False;False;2,39800000191;True;1,46900010109
YWH1992w;experiment;2017-03-28-14-02-40;5,0;1,0;1000;0,0;1,0;2,0;3,0;column;0,0;True;False;True;3,59999990463;True;0,838999986649
YWH1992w;experiment;2017-03-28-14-02-40;5,0;2,0;1000;3,0;0,0;2,0;1,0;column;1,0;True;False;True;1,33400011063;True;1,40100002289
YWH1992w;experiment;2017-03-28-14-02-40;5,0;3,0;1000;1,0;0,0;2,0;3,0;column;0,0;True;True;True;2,06600022316;True;0,601999998093
YWH1992w;experiment;2017-03-28-14-02-40;5,0;4,0;1000;3,0;2,0;0,0;1,0;row;0,0;False;True;False;1,73399996758;True;0,667999982834
YWH1992w;experiment;2017-03-28-14-02-40;5,0;5,0;1000;1,0;0,0;2,0;3,0;row;1,0;False;True;True;1,60000014305;False;0,56200003624
YWH1992w;experiment;2017-03-28-14-02-40;5,0;6,0;1000;2,0;0,0;1,0;3,0;row;0,0;False;False;False;1,00099992752;True;1,02699995041
YWH1992w;experiment;2017-03-28-14-02-40;5,0;7,0;1000;3,0;2,0;1,0;0,0;row;1,0;True;True;True;2,132999897;True;0,703000068665
YWH1992w;experiment;2017-03-28-14-02-40;5,0;8,0;1000;1,0;2,0;0,0;3,0;column;1,0;False;True;False;1,13199996948;True;0,97000002861
YWH1992w;experiment;2017-03-28-14-02-40;5,0;9,0;1000;2,0;1,0;3,0;0,0;row;1,0;False;True;True;1,30000019073;False;1,12700009346
YWH1992w;experiment;2017-03-28-14-02-40;5,0;10,0;1000;0,0;1,0;2,0;3,0;row;0,0;True;True;True;1,70000004768;True;0,700000047684
YWH1992w;experiment;2017-03-28-14-02-40;5,0;11,0;1000;1,0;3,0;0,0;2,0;column;1,0;False;True;True;1,5;False;0,730000019073
YWH1992w;experiment;2017-03-28-14-02-40;5,0;12,0;1000;2,0;0,0;1,0;3,0;column;1,0;True;False;True;1,33200001717;True;1,36599993706
YWH1992w;experiment;2017-03-28-14-02-40;5,0;13,0;1000;0,0;2,0;3,0;1,0;row;1,0;False;True;False;1,03299999237;True;0,666999816895
YWH1992w;experiment;2017-03-28-14-02-40;5,0;14,0;1000;1,0;0,0;3,0;2,0;row;0,0;True;True;False;2,36699986458;False;1,46000003815
YWH1992w;experiment;2017-03-28-14-02-40;5,0;15,0;1000;3,0;0,0;1,0;2,0;column;0,0;False;True;False;2,19599986076;True;1,46000003815
YWH1992w;experiment;2017-03-28-14-02-40;5,0;16,0;1000;1,0;0,0;2,0;3,0;column;0,0;False;False;False;0,865999937057;True;1,46700000763
YWH1992w;experiment;2017-03-28-14-02-40;5,0;17,0;1000;2,0;0,0;3,0;1,0;row;1,0;False;True;False;1,867000103;True;0,957999944687
YWH1992w;experiment;2017-03-28-14-02-40;5,0;18,0;1000;1,0;0,0;3,0;2,0;column;1,0;False;True;False;2,03100013733;True;0,634999990463
YWH1992w;experiment;2017-03-28-14-02-40;5,0;19,0;1000;0,0;3,0;1,0;2,0;row;0,0;False;True;False;2,36800003052;True;0,90499997139
YWH1992w;experiment;2017-03-28-14-02-40;5,0;20,0;1000;1,0;2,0;0,0;3,0;column;0,0;False;False;False;1,16700005531;True;0,535000085831
YWH1992w;experiment;2017-03-28-14-02-40;5,0;21,0;1000;2,0;1,0;0,0;3,0;column;0,0;False;True;False;3,29999995232;True;1,36100006104
YWH1992w;experiment;2017-03-28-14-02-40;5,0;22,0;1000;3,0;1,0;2,0;0,0;column;0,0;True;True;True;2,632999897;True;1,03400015831
YWH1992w;experiment;2017-03-28-14-02-40;5,0;23,0;1000;1,0;3,0;2,0;0,0;row;0,0;False;True;False;1,10000014305;True;1,49699997902
YWH1992w;experiment;2017-03-28-14-02-40;5,0;24,0;1000;1,0;0,0;2,0;3,0;column;1,0;True;False;True;2,60000014305;True;1,09200000763
YWH1992w;experiment;2017-03-28-14-02-40;5,0;25,0;1000;0,0;1,0;3,0;2,0;column;1,0;True;False;True;1,63199996948;True;0,966000080109
YWH1992w;experiment;2017-03-28-14-02-40;5,0;26,0;1000;2,0;0,0;1,0;3,0;column;0,0;True;True;True;2,69400000572;True;1,02999997139
YWH1992w;experiment;2017-03-28-14-02-40;5,0;27,0;1000;2,0;3,0;0,0;1,0;column;0,0;True;False;True;2,2990000248;True;0,568000078201
YWH1992w;experiment;2017-03-28-14-02-40;5,0;28,0;1000;2,0;3,0;1,0;0,0;row;1,0;False;True;False;2,76399993896;True;1,03600001335
YWH1992w;experiment;2017-03-28-14-02-40;5,0;29,0;1000;3,0;0,0;2,0;1,0;column;0,0;True;True;True;2,13300013542;True;1,1970000267
YWH1992w;experiment;2017-03-28-14-02-40;5,0;30,0;1000;1,0;3,0;0,0;2,0;column;0,0;True;False;True;2,03199982643;True;0,726999998093
YWH1992w;experiment;2017-03-28-14-02-40;5,0;31,0;1000;1,0;3,0;2,0;0,0;column;0,0;True;True;True;1,73399996758;True;0,996999979019
YWH1992w;experiment;2017-03-28-14-02-40;5,0;32,0;1000;3,0;1,0;2,0;0,0;column;1,0;True;False;True;1,76600003242;True;0,661999940872
YWH1992w;experiment;2017-03-28-14-02-40;5,0;33,0;1000;3,0;2,0;1,0;0,0;column;0,0;False;True;False;1,96700000763;True;1,06399989128
YWH1992w;experiment;2017-03-28-14-02-40;5,0;34,0;1000;0,0;2,0;1,0;3,0;row;1,0;True;True;True;2,03200006485;True;1,39400005341
YWH1992w;experiment;2017-03-28-14-02-40;5,0;35,0;1000;3,0;1,0;0,0;2,0;column;0,0;False;False;False;2,06700015068;True;1,32699990273
YWH1992w;experiment;2017-03-28-14-02-40;5,0;36,0;1000;1,0;0,0;3,0;2,0;column;1,0;True;True;True;1,56699991226;True;1,26800012589
YWH1992w;experiment;2017-03-28-14-02-40;5,0;37,0;1000;0,0;2,0;3,0;1,0;column;0,0;False;False;False;1,93400001526;True;1,46499991417
YWH1992w;experiment;2017-03-28-14-02-40;5,0;38,0;1000;1,0;0,0;3,0;2,0;row;1,0;False;False;False;2,96199989319;True;1,33599996567
YWH1992w;experiment;2017-03-28-14-02-40;5,0;39,0;1000;1,0;2,0;3,0;0,0;row;0,0;True;False;True;2,2990000248;True;0,534999847412
YWH1992w;experiment;2017-03-28-14-02-40;5,0;40,0;1000;3,0;1,0;0,0;2,0;column;1,0;True;True;True;1,5;True;1,40299987793
YWH1992w;experiment;2017-03-28-14-02-40;5,0;41,0;1000;2,0;3,0;1,0;0,0;column;0,0;True;False;True;2,2009999752;True;1,16299986839
YWH1992w;experiment;2017-03-28-14-02-40;5,0;42,0;1000;3,0;1,0;2,0;0,0;row;0,0;True;False;True;1,53399991989;True;1,10199999809
YWH1992w;experiment;2017-03-28-14-02-40;5,0;43,0;1000;3,0;1,0;0,0;2,0;column;1,0;False;True;True;2,49699997902;False;1,43700003624
YWH1992w;experiment;2017-03-28-14-02-40;5,0;44,0;1000;3,0;2,0;1,0;0,0;column;1,0;False;False;True;2,09699988365;False;1,3029999733
YWH1992w;experiment;2017-03-28-14-02-40;5,0;45,0;1000;2,0;0,0;1,0;3,0;column;0,0;False;False;True;2,29800009727;False;0,800999879837
YWH1992w;experiment;2017-03-28-14-02-40;5,0;46,0;1000;1,0;0,0;2,0;3,0;column;1,0;False;False;False;1,9319999218;True;0,506000041962
YWH1992w;experiment;2017-03-28-14-02-40;5,0;47,0;1000;2,0;3,0;1,0;0,0;column;1,0;False;False;False;1,13100004196;True;1,3029999733
YWH1992w;experiment;2017-03-28-14-02-40;5,0;48,0;1000;1,0;2,0;0,0;3,0;row;0,0;False;True;True;2,26600003242;False;1,46700000763
YWH1992w;experiment;2017-03-28-14-02-40;6,0;1,0;-100;2,0;1,0;0,0;3,0;row;0,0;False;False;False;1,28399991989;True;0,931999921799
YWH1992w;experiment;2017-03-28-14-02-40;6,0;2,0;-100;3,0;1,0;2,0;0,0;row;0,0;True;False;True;1,34899997711;True;1,26900005341
YWH1992w;experiment;2017-03-28-14-02-40;6,0;3,0;-100;2,0;3,0;0,0;1,0;column;0,0;False;True;False;1,98000001907;True;1,37299990654
YWH1992w;experiment;2017-03-28-14-02-40;6,0;4,0;-100;1,0;2,0;3,0;0,0;row;0,0;False;True;False;0,849999904633;True;0,565999984741
YWH1992w;experiment;2017-03-28-14-02-40;6,0;5,0;-100;2,0;0,0;3,0;1,0;column;1,0;True;True;True;1,6819999218;True;0,931999921799
YWH1992w;experiment;2017-03-28-14-02-40;6,0;6,0;-100;2,0;1,0;3,0;0,0;row;0,0;False;False;False;1,68000006676;True;1,20300006866
YWH1992w;experiment;2017-03-28-14-02-40;6,0;7,0;-100;3,0;1,0;2,0;0,0;column;1,0;False;False;True;2,51300001144;False;1,13400006294
YWH1992w;experiment;2017-03-28-14-02-40;6,0;8,0;-100;0,0;2,0;3,0;1,0;row;1,0;False;False;False;2,01699995995;True;1,33000016212
YWH1992w;experiment;2017-03-28-14-02-40;6,0;9,0;-100;1,0;2,0;3,0;0,0;row;1,0;True;True;True;1,61400008202;True;0,794999837875
YWH1992w;experiment;2017-03-28-14-02-40;6,0;10,0;-100;2,0;3,0;1,0;0,0;column;1,0;False;False;False;2,41799998283;True;0,695999860764
YWH1992w;experiment;2017-03-28-14-02-40;6,0;11,0;-100;0,0;1,0;2,0;3,0;column;0,0;True;True;True;1,51600003242;True;0,52899980545
YWH1992w;experiment;2017-03-28-14-02-40;6,0;12,0;-100;0,0;3,0;1,0;2,0;row;1,0;True;False;True;2,08100008965;True;0,634999990463
YWH1992w;experiment;2017-03-28-14-02-40;6,0;13,0;-100;1,0;2,0;3,0;0,0;column;1,0;True;True;False;2,81500005722;False;0,892999887466
YWH1992w;experiment;2017-03-28-14-02-40;6,0;14,0;-100;0,0;1,0;2,0;3,0;row;0,0;True;False;True;1,98300004005;True;1,42200016975
YWH1992w;experiment;2017-03-28-14-02-40;6,0;15,0;-100;3,0;1,0;0,0;2,0;row;0,0;True;True;True;3,14899992943;True;1,492000103
YWH1992w;experiment;2017-03-28-14-02-40;6,0;16,0;-100;2,0;0,0;1,0;3,0;row;0,0;True;True;False;2,74899983406;False;0,935000181198
YWH1992w;experiment;2017-03-28-14-02-40;6,0;17,0;-100;1,0;3,0;2,0;0,0;row;1,0;False;True;True;2,64900016785;False;1,12599992752
YWH1992w;experiment;2017-03-28-14-02-40;6,0;18,0;-100;0,0;2,0;1,0;3,0;row;1,0;True;False;True;2,21599984169;True;0,526999950409
YWH1992w;experiment;2017-03-28-14-02-40;6,0;19,0;-100;1,0;0,0;3,0;2,0;column;0,0;False;False;False;2,54800009727;True;1,39699983597
YWH1992w;experiment;2017-03-28-14-02-40;6,0;20,0;-100;0,0;2,0;3,0;1,0;row;1,0;True;True;True;1,45000004768;True;1,30100011826
YWH1992w;experiment;2017-03-28-14-02-40;6,0;21,0;-100;3,0;2,0;0,0;1,0;row;0,0;True;False;True;1,41700005531;True;1,07000017166
YWH1992w;experiment;2017-03-28-14-02-40;6,0;22,0;-100;2,0;0,0;3,0;1,0;row;1,0;True;True;True;1,71399998665;True;1,23400020599
YWH1992w;experiment;2017-03-28-14-02-40;6,0;23,0;-100;0,0;1,0;2,0;3,0;row;0,0;False;True;False;1,94900012016;True;1,42899990082
YWH1992w;experiment;2017-03-28-14-02-40;6,0;24,0;-100;3,0;1,0;2,0;0,0;column;0,0;False;True;False;1,15000009537;True;0,959000110626
YWH1992w;experiment;2017-03-28-14-02-40;6,0;25,0;-100;1,0;2,0;0,0;3,0;column;0,0;True;False;True;2,34700012207;True;1,09699988365
YWH1992w;experiment;2017-03-28-14-02-40;6,0;26,0;-100;1,0;2,0;0,0;3,0;row;1,0;True;True;True;1,54999995232;True;0,569999933243
YWH1992w;experiment;2017-03-28-14-02-40;6,0;27,0;-100;0,0;3,0;2,0;1,0;column;0,0;False;True;False;2,11500000954;True;0,838000059128
YWH1992w;experiment;2017-03-28-14-02-40;6,0;28,0;-100;3,0;2,0;0,0;1,0;column;0,0;False;False;False;1,98200011253;True;0,634999990463
YWH1992w;experiment;2017-03-28-14-02-40;6,0;29,0;-100;0,0;2,0;1,0;3,0;column;0,0;True;False;True;2,21600008011;True;0,934000015259
YWH1992w;experiment;2017-03-28-14-02-40;6,0;30,0;-100;3,0;0,0;2,0;1,0;column;1,0;True;False;True;1,3140001297;True;0,702000141144
YWH1992w;experiment;2017-03-28-14-02-40;6,0;31,0;-100;2,0;0,0;3,0;1,0;row;0,0;True;True;True;1,78399991989;True;1,39099979401
YWH1992w;experiment;2017-03-28-14-02-40;6,0;32,0;-100;0,0;1,0;3,0;2,0;column;1,0;True;True;True;1,41599988937;True;1,16700005531
YWH1992w;experiment;2017-03-28-14-02-40;6,0;33,0;-100;1,0;3,0;2,0;0,0;column;0,0;True;True;True;1,65100002289;True;1,09400010109
YWH1992w;experiment;2017-03-28-14-02-40;6,0;34,0;-100;1,0;0,0;3,0;2,0;row;1,0;True;False;True;1,55099987984;True;1,12800002098
YWH1992w;experiment;2017-03-28-14-02-40;6,0;35,0;-100;1,0;0,0;2,0;3,0;row;1,0;False;True;False;2,18099999428;True;0,797999858856
YWH1992w;experiment;2017-03-28-14-02-40;6,0;36,0;-100;2,0;0,0;1,0;3,0;column;0,0;False;True;True;2,08099985123;False;1,20000004768
YWH1992w;experiment;2017-03-28-14-02-40;6,0;37,0;-100;1,0;3,0;0,0;2,0;column;0,0;True;True;True;2,04699993134;True;1,36800003052
YWH1992w;experiment;2017-03-28-14-02-40;6,0;38,0;-100;3,0;0,0;1,0;2,0;row;1,0;False;True;False;2,01400017738;True;0,694000005722
YWH1992w;experiment;2017-03-28-14-02-40;6,0;39,0;-100;1,0;3,0;2,0;0,0;column;1,0;False;False;True;1,48300004005;False;1,36599993706
YWH1992w;experiment;2017-03-28-14-02-40;6,0;40,0;-100;3,0;1,0;0,0;2,0;row;0,0;False;False;False;2,81700015068;True;1,09599995613
YWH1992w;experiment;2017-03-28-14-02-40;6,0;41,0;-100;3,0;0,0;2,0;1,0;row;0,0;True;True;True;1,48100018501;True;1,29399991035
YWH1992w;experiment;2017-03-28-14-02-40;6,0;42,0;-100;3,0;0,0;1,0;2,0;column;1,0;False;True;False;1,01599979401;True;1,50300002098
YWH1992w;experiment;2017-03-28-14-02-40;6,0;43,0;-100;1,0;0,0;3,0;2,0;column;1,0;False;True;False;0,883999824524;True;1,03399991989
YWH1992w;experiment;2017-03-28-14-02-40;6,0;44,0;-100;0,0;3,0;1,0;2,0;column;0,0;True;False;True;1,64800000191;True;1,25699996948
YWH1992w;experiment;2017-03-28-14-02-40;6,0;45,0;-100;0,0;3,0;1,0;2,0;row;1,0;False;False;True;2,21800017357;False;1,23500013351
YWH1992w;experiment;2017-03-28-14-02-40;6,0;46,0;-100;2,0;0,0;1,0;3,0;column;0,0;True;False;False;2,21399998665;False;0,996999979019
YWH1992w;experiment;2017-03-28-14-02-40;6,0;47,0;-100;1,0;0,0;2,0;3,0;row;0,0;False;False;True;2,0150001049;False;0,536999940872
YWH1992w;experiment;2017-03-28-14-02-40;6,0;48,0;-100;1,0;2,0;0,0;3,0;row;0,0;True;True;True;1,81699991226;True;0,628000020981
YWH1992w;experiment;2017-03-28-14-02-40;7,0;1,0;-100;1,0;0,0;3,0;2,0;column;1,0;True;True;True;3,21199989319;True;0,667999982834
YWH1992w;experiment;2017-03-28-14-02-40;7,0;2,0;-100;0,0;2,0;3,0;1,0;column;1,0;False;True;False;1,78399991989;True;0,835000038147
YWH1992w;experiment;2017-03-28-14-02-40;7,0;3,0;-100;2,0;3,0;1,0;0,0;column;0,0;False;True;False;1,44799995422;True;1,19499993324
YWH1992w;experiment;2017-03-28-14-02-40;7,0;4,0;-100;0,0;3,0;2,0;1,0;row;1,0;False;False;False;0,913999795914;True;0,804000139236
YWH1992w;experiment;2017-03-28-14-02-40;7,0;5,0;-100;1,0;3,0;0,0;2,0;column;1,0;False;False;False;2,31599998474;True;0,56200003624
YWH1992w;experiment;2017-03-28-14-02-40;7,0;6,0;-100;0,0;3,0;2,0;1,0;column;0,0;True;True;True;2,61599993706;True;0,962999820709
YWH1992w;experiment;2017-03-28-14-02-40;7,0;7,0;-100;3,0;0,0;2,0;1,0;column;0,0;False;False;False;2,28299999237;True;1,29199981689
YWH1992w;experiment;2017-03-28-14-02-40;7,0;8,0;-100;3,0;0,0;2,0;1,0;column;0,0;True;True;True;2,81599998474;True;1,00299978256
YWH1992w;experiment;2017-03-28-14-02-40;7,0;9,0;-100;2,0;0,0;1,0;3,0;row;1,0;False;False;False;2,31600022316;True;1,16599988937
YWH1992w;experiment;2017-03-28-14-02-40;7,0;10,0;-100;2,0;1,0;0,0;3,0;row;1,0;True;False;True;1,74900007248;True;1,0680000782
YWH1992w;experiment;2017-03-28-14-02-40;7,0;11,0;-100;0,0;2,0;3,0;1,0;column;0,0;False;False;False;2,54999995232;True;1,46799993515
YWH1992w;experiment;2017-03-28-14-02-40;7,0;12,0;-100;2,0;1,0;3,0;0,0;column;1,0;False;False;False;1,25099992752;True;1,12700009346
YWH1992w;experiment;2017-03-28-14-02-40;7,0;13,0;-100;0,0;3,0;1,0;2,0;column;0,0;False;False;False;2,51600003242;True;0,526999950409
YWH1992w;experiment;2017-03-28-14-02-40;7,0;14,0;-100;3,0;2,0;1,0;0,0;row;1,0;True;False;False;2,21499991417;False;1,0
YWH1992w;experiment;2017-03-28-14-02-40;7,0;15,0;-100;2,0;3,0;0,0;1,0;column;1,0;True;True;True;1,74799990654;True;0,759000062943
YWH1992w;experiment;2017-03-28-14-02-40;7,0;16,0;-100;1,0;2,0;3,0;0,0;column;0,0;True;False;True;1,38199996948;True;1,49099993706
YWH1992w;experiment;2017-03-28-14-02-40;7,0;17,0;-100;1,0;0,0;2,0;3,0;column;0,0;False;True;False;2,61199998856;True;1,29799985886
YWH1992w;experiment;2017-03-28-14-02-40;7,0;18,0;-100;1,0;2,0;3,0;0,0;column;0,0;False;True;False;0,950000047684;True;1,23300004005
YWH1992w;experiment;2017-03-28-14-02-40;7,0;19,0;-100;2,0;3,0;1,0;0,0;row;0,0;False;False;False;2,31699991226;True;0,638000011444
YWH1992w;experiment;2017-03-28-14-02-40;7,0;20,0;-100;0,0;1,0;2,0;3,0;row;1,0;True;False;False;1,81599998474;False;0,936000108719
YWH1992w;experiment;2017-03-28-14-02-40;7,0;21,0;-100;1,0;0,0;2,0;3,0;row;1,0;True;False;True;1,28299999237;True;1,43299984932
YWH1992w;experiment;2017-03-28-14-02-40;7,0;22,0;-100;2,0;1,0;0,0;3,0;column;0,0;False;False;False;0,914000034332;True;0,559000015259
YWH1992w;experiment;2017-03-28-14-02-40;7,0;23,0;-100;0,0;1,0;3,0;2,0;row;0,0;True;True;True;1,68300008774;True;0,635999917984
YWH1992w;experiment;2017-03-28-14-02-40;7,0;24,0;-100;1,0;3,0;2,0;0,0;column;1,0;True;False;True;1,3820002079;True;1,2650001049
YWH1992w;experiment;2017-03-28-14-02-40;7,0;25,0;-100;3,0;2,0;1,0;0,0;column;1,0;False;False;False;1,98399996758;True;0,894000053406
YWH1992w;experiment;2017-03-28-14-02-40;7,0;26,0;-100;2,0;3,0;0,0;1,0;row;0,0;True;True;True;2,34700012207;True;1,10299992561
YWH1992w;experiment;2017-03-28-14-02-40;7,0;27,0;-100;2,0;3,0;1,0;0,0;column;1,0;True;True;True;2,25100016594;True;0,601000070572
YWH1992w;experiment;2017-03-28-14-02-40;7,0;28,0;-100;3,0;2,0;1,0;0,0;column;0,0;False;True;False;1,38100004196;True;0,628000020981
YWH1992w;experiment;2017-03-28-14-02-40;7,0;29,0;-100;2,0;0,0;3,0;1,0;column;0,0;True;True;True;3,71700000763;True;0,835999965668
YWH1992w;experiment;2017-03-28-14-02-40;7,0;30,0;-100;0,0;2,0;1,0;3,0;row;0,0;False;False;False;1,71500015259;True;0,967000007629
YWH1992w;experiment;2017-03-28-14-02-40;7,0;31,0;-100;3,0;0,0;1,0;2,0;column;0,0;False;True;False;1,18400001526;True;1,12900018692
YWH1992w;experiment;2017-03-28-14-02-40;7,0;32,0;-100;3,0;2,0;0,0;1,0;row;1,0;True;False;True;1,34799981117;True;1,33500003815
YWH1992w;experiment;2017-03-28-14-02-40;7,0;33,0;-100;0,0;3,0;2,0;1,0;row;0,0;False;False;False;0,879999876022;True;1,0039999485
YWH1992w;experiment;2017-03-28-14-02-40;7,0;34,0;-100;3,0;0,0;1,0;2,0;row;0,0;False;False;True;1,91400003433;False;0,861000061035
YWH1992w;experiment;2017-03-28-14-02-40;7,0;35,0;-100;0,0;2,0;3,0;1,0;row;0,0;True;True;True;2,28100013733;True;0,9359998703
YWH1992w;experiment;2017-03-28-14-02-40;7,0;36,0;-100;3,0;0,0;1,0;2,0;column;0,0;True;False;True;2,01600003242;True;1,33100008965
YWH1992w;experiment;2017-03-28-14-02-40;7,0;37,0;-100;1,0;3,0;0,0;2,0;column;0,0;False;False;False;0,883999824524;True;0,96799993515
YWH1992w;experiment;2017-03-28-14-02-40;7,0;38,0;-100;0,0;2,0;3,0;1,0;row;0,0;False;True;False;1,84700012207;True;1,23200011253
YWH1992w;experiment;2017-03-28-14-02-40;7,0;39,0;-100;3,0;2,0;1,0;0,0;row;0,0;True;False;True;1,28199982643;True;0,694000005722
YWH1992w;experiment;2017-03-28-14-02-40;7,0;40,0;-100;2,0;3,0;0,0;1,0;row;0,0;False;False;False;1,15000009537;True;1,33800005913
YWH1992w;experiment;2017-03-28-14-02-40;7,0;41,0;-100;0,0;1,0;3,0;2,0;column;0,0;False;True;False;1,21600008011;True;1,02799987793
YWH1992w;experiment;2017-03-28-14-02-40;7,0;42,0;-100;0,0;1,0;2,0;3,0;column;1,0;False;True;True;2,91499996185;False;0,567999839783
YWH1992w;experiment;2017-03-28-14-02-40;7,0;43,0;-100;3,0;0,0;2,0;1,0;row;1,0;True;True;True;1,28299999237;True;1,19600009918
YWH1992w;experiment;2017-03-28-14-02-40;7,0;44,0;-100;1,0;0,0;3,0;2,0;row;0,0;False;False;False;2,01600003242;True;0,53200006485
YWH1992w;experiment;2017-03-28-14-02-40;7,0;45,0;-100;3,0;1,0;0,0;2,0;row;1,0;False;True;False;2,41600012779;True;1,16700005531
YWH1992w;experiment;2017-03-28-14-02-40;7,0;46,0;-100;1,0;0,0;2,0;3,0;column;1,0;False;False;False;1,64800000191;True;0,999000072479
YWH1992w;experiment;2017-03-28-14-02-40;7,0;47,0;-100;3,0;0,0;1,0;2,0;row;0,0;True;True;True;1,5490000248;True;1,29199981689
YWH1992w;experiment;2017-03-28-14-02-40;7,0;48,0;-100;0,0;3,0;2,0;1,0;row;0,0;True;True;True;2,94400000572;True;0,739000082016
YWH1992w;experiment;2017-03-28-14-02-40;8,0;1,0;1000;3,0;1,0;0,0;2,0;row;0,0;False;False;False;1,83200001717;True;0,667999982834
YWH1992w;experiment;2017-03-28-14-02-40;8,0;2,0;1000;1,0;0,0;3,0;2,0;row;0,0;False;False;False;2,132999897;True;0,535000085831
YWH1992w;experiment;2017-03-28-14-02-40;8,0;3,0;1000;1,0;2,0;0,0;3,0;column;1,0;True;False;True;1,46399998665;True;0,532999992371
YWH1992w;experiment;2017-03-28-14-02-40;8,0;4,0;1000;0,0;2,0;3,0;1,0;row;0,0;False;True;False;1,79899978638;True;1,00300002098
YWH1992w;experiment;2017-03-28-14-02-40;8,0;5,0;1000;2,0;0,0;3,0;1,0;row;1,0;True;True;False;1,13300013542;False;1,23600006104
YWH1992w;experiment;2017-03-28-14-02-40;8,0;6,0;1000;3,0;0,0;2,0;1,0;column;1,0;False;False;False;3,06500005722;True;1,43899989128
YWH1992w;experiment;2017-03-28-14-02-40;8,0;7,0;1000;3,0;0,0;2,0;1,0;row;0,0;True;False;True;1,5;True;1,02799987793
YWH1992w;experiment;2017-03-28-14-02-40;8,0;8,0;1000;0,0;1,0;2,0;3,0;column;0,0;False;False;False;1,73300004005;True;0,667000055313
YWH1992w;experiment;2017-03-28-14-02-40;8,0;9,0;1000;0,0;2,0;1,0;3,0;row;0,0;False;False;False;0,967000007629;True;1,36899995804
YWH1992w;experiment;2017-03-28-14-02-40;8,0;10,0;1000;3,0;2,0;0,0;1,0;column;1,0;True;False;True;1,53200006485;True;1,13499999046
YWH1992w;experiment;2017-03-28-14-02-40;8,0;11,0;1000;3,0;1,0;0,0;2,0;row;0,0;True;False;True;1,29999995232;True;1,46299982071
YWH1992w;experiment;2017-03-28-14-02-40;8,0;12,0;1000;3,0;2,0;1,0;0,0;row;1,0;False;False;True;2,23300004005;False;0,766000032425
YWH1992w;experiment;2017-03-28-14-02-40;8,0;13,0;1000;2,0;3,0;1,0;0,0;row;0,0;True;False;True;2,86600017548;True;0,931999921799
YWH1992w;experiment;2017-03-28-14-02-40;8,0;14,0;1000;1,0;2,0;0,0;3,0;column;0,0;True;False;True;1,96599984169;True;0,602999925613
YWH1992w;experiment;2017-03-28-14-02-40;8,0;15,0;1000;1,0;0,0;3,0;2,0;column;0,0;True;True;False;1,33400011063;False;0,532999992371
YWH1992w;experiment;2017-03-28-14-02-40;8,0;16,0;1000;3,0;1,0;0,0;2,0;column;0,0;True;True;True;1,86800003052;True;1,26800012589
YWH1992w;experiment;2017-03-28-14-02-40;8,0;17,0;1000;0,0;3,0;1,0;2,0;row;0,0;True;True;True;0,96599984169;True;0,603000164032
YWH1992w;experiment;2017-03-28-14-02-40;8,0;18,0;1000;3,0;1,0;0,0;2,0;row;1,0;True;False;True;2,20000004768;True;1,00300002098
YWH1992w;experiment;2017-03-28-14-02-40;8,0;19,0;1000;0,0;3,0;2,0;1,0;row;0,0;False;True;True;3,46600008011;False;0,768000125885
YWH1992w;experiment;2017-03-28-14-02-40;8,0;20,0;1000;0,0;2,0;1,0;3,0;column;1,0;True;True;True;1,06599998474;True;1,40200018883
YWH1992w;experiment;2017-03-28-14-02-40;8,0;21,0;1000;3,0;0,0;2,0;1,0;row;1,0;True;False;True;0,967000007629;True;0,763000011444
YWH1992w;experiment;2017-03-28-14-02-40;8,0;22,0;1000;0,0;1,0;2,0;3,0;row;0,0;False;False;False;1,90000009537;True;1,367000103
YWH1992w;experiment;2017-03-28-14-02-40;8,0;23,0;1000;1,0;3,0;2,0;0,0;row;1,0;False;True;False;2,26600003242;True;0,661000013351
YWH1992w;experiment;2017-03-28-14-02-40;8,0;24,0;1000;1,0;2,0;3,0;0,0;column;1,0;False;False;True;3,26600003242;False;0,697000026703
YWH1992w;experiment;2017-03-28-14-02-40;8,0;25,0;1000;2,0;0,0;3,0;1,0;column;1,0;False;True;False;1,16499996185;True;0,630999803543
YWH1992w;experiment;2017-03-28-14-02-40;8,0;26,0;1000;0,0;2,0;1,0;3,0;row;1,0;False;False;False;1,63300013542;True;1,40400004387
YWH1992w;experiment;2017-03-28-14-02-40;8,0;27,0;1000;0,0;3,0;2,0;1,0;column;0,0;False;False;False;1,73300004005;True;1,06699991226
YWH1992w;experiment;2017-03-28-14-02-40;8,0;28,0;1000;3,0;1,0;2,0;0,0;row;1,0;True;True;False;2,20000004768;False;1,33399987221
YWH1992w;experiment;2017-03-28-14-02-40;8,0;29,0;1000;3,0;1,0;0,0;2,0;row;1,0;False;False;False;1,0;True;1,13400006294
YWH1992w;experiment;2017-03-28-14-02-40;8,0;30,0;1000;2,0;3,0;0,0;1,0;column;1,0;False;True;False;2,79600000381;True;1,05500006676
YWH1992w;experiment;2017-03-28-14-02-40;8,0;31,0;1000;1,0;2,0;3,0;0,0;column;1,0;True;False;True;2,23300004005;True;1,02100014687
YWH1992w;experiment;2017-03-28-14-02-40;8,0;32,0;1000;1,0;3,0;2,0;0,0;row;1,0;True;True;True;1,86699986458;True;0,733999967575
YWH1992w;experiment;2017-03-28-14-02-40;8,0;33,0;1000;3,0;2,0;1,0;0,0;column;1,0;True;False;True;1,39999985695;True;1,46600008011
YWH1992w;experiment;2017-03-28-14-02-40;8,0;34,0;1000;1,0;2,0;3,0;0,0;row;1,0;True;True;True;1,46300005913;True;0,628999948502
YWH1992w;experiment;2017-03-28-14-02-40;8,0;35,0;1000;3,0;0,0;1,0;2,0;row;1,0;False;True;False;1,86599993706;True;1,02799987793
YWH1992w;experiment;2017-03-28-14-02-40;8,0;36,0;1000;2,0;1,0;3,0;0,0;row;0,0;True;False;True;1,76499986649;True;1,46499991417
YWH1992w;experiment;2017-03-28-14-02-40;8,0;37,0;1000;0,0;2,0;3,0;1,0;row;1,0;True;True;True;1,93200016022;True;0,698999881744
YWH1992w;experiment;2017-03-28-14-02-40;8,0;38,0;1000;3,0;0,0;2,0;1,0;column;0,0;False;False;False;0,867000102997;True;0,735000133514
YWH1992w;experiment;2017-03-28-14-02-40;8,0;39,0;1000;0,0;3,0;2,0;1,0;row;1,0;True;True;True;1,53299999237;True;1,13700008392
YWH1992w;experiment;2017-03-28-14-02-40;8,0;40,0;1000;3,0;1,0;2,0;0,0;row;1,0;False;False;False;1,0;True;1,43499994278
YWH1992w;experiment;2017-03-28-14-02-40;8,0;41,0;1000;3,0;2,0;0,0;1,0;row;1,0;False;False;False;1,56700015068;True;0,569999933243
YWH1992w;experiment;2017-03-28-14-02-40;8,0;42,0;1000;2,0;1,0;3,0;0,0;row;0,0;False;True;False;0,732999801636;True;1,09699988365
YWH1992w;experiment;2017-03-28-14-02-40;8,0;43,0;1000;3,0;1,0;2,0;0,0;row;0,0;False;False;False;2,132999897;True;0,832000017166
YWH1992w;experiment;2017-03-28-14-02-40;8,0;44,0;1000;0,0;3,0;1,0;2,0;column;1,0;True;True;True;0,931999921799;True;1,29800009727
YWH1992w;experiment;2017-03-28-14-02-40;8,0;45,0;1000;3,0;0,0;1,0;2,0;column;1,0;False;False;True;2,09999990463;False;1,16799998283
YWH1992w;experiment;2017-03-28-14-02-40;8,0;46,0;1000;1,0;3,0;0,0;2,0;row;1,0;False;False;True;3,96700000763;False;0,967000007629
YWH1992w;experiment;2017-03-28-14-02-40;8,0;47,0;1000;2,0;0,0;1,0;3,0;row;0,0;True;True;True;1,43099999428;True;0,600000143051
YWH1992w;experiment;2017-03-28-14-02-40;8,0;48,0;1000;0,0;1,0;2,0;3,0;column;1,0;True;False;False;2,367000103;False;1,46500015259
YWH1992w;experiment;2017-03-28-14-02-40;9,0;1,0;100;1,0;3,0;0,0;2,0;row;0,0;False;False;False;1,93299984932;True;1,20399999619
YWH1992w;experiment;2017-03-28-14-02-40;9,0;2,0;100;2,0;1,0;3,0;0,0;column;1,0;False;True;False;1,83400011063;True;1,26699995995
YWH1992w;experiment;2017-03-28-14-02-40;9,0;3,0;100;3,0;2,0;0,0;1,0;column;1,0;False;False;False;1,66699981689;True;0,926000118256
YWH1992w;experiment;2017-03-28-14-02-40;9,0;4,0;100;0,0;3,0;1,0;2,0;column;0,0;True;True;True;2,13400006294;True;1,19599986076
YWH1992w;experiment;2017-03-28-14-02-40;9,0;5,0;100;2,0;1,0;3,0;0,0;row;0,0;True;True;True;1,367000103;True;0,674000024796
YWH1992w;experiment;2017-03-28-14-02-40;9,0;6,0;100;2,0;3,0;1,0;0,0;column;1,0;True;False;True;1,49799990654;True;1,43799996376
YWH1992w;experiment;2017-03-28-14-02-40;9,0;7,0;100;2,0;0,0;3,0;1,0;row;1,0;False;True;False;1,36599993706;True;0,801000118256
YWH1992w;experiment;2017-03-28-14-02-40;9,0;8,0;100;3,0;0,0;1,0;2,0;row;1,0;True;True;True;2,16799998283;True;0,565999984741
YWH1992w;experiment;2017-03-28-14-02-40;9,0;9,0;100;2,0;0,0;3,0;1,0;column;1,0;True;False;True;0,967000007629;True;0,868000030518
YWH1992w;experiment;2017-03-28-14-02-40;9,0;10,0;100;1,0;0,0;3,0;2,0;row;0,0;True;True;True;1,69599986076;True;0,798000097275
YWH1992w;experiment;2017-03-28-14-02-40;9,0;11,0;100;0,0;2,0;3,0;1,0;row;1,0;False;True;False;1,93300008774;True;0,924999952316
YWH1992w;experiment;2017-03-28-14-02-40;9,0;12,0;100;0,0;3,0;2,0;1,0;column;0,0;False;False;False;0,967000007629;True;1,22799992561
YWH1992w;experiment;2017-03-28-14-02-40;9,0;13,0;100;1,0;2,0;3,0;0,0;column;0,0;True;True;True;1,86800003052;True;0,568000078201
YWH1992w;experiment;2017-03-28-14-02-40;9,0;14,0;100;2,0;0,0;3,0;1,0;row;1,0;True;False;True;2,132999897;True;0,801000118256
YWH1992w;experiment;2017-03-28-14-02-40;9,0;15,0;100;2,0;3,0;0,0;1,0;column;1,0;False;False;False;1,23399996758;True;0,635999917984
YWH1992w;experiment;2017-03-28-14-02-40;9,0;16,0;100;3,0;2,0;0,0;1,0;column;0,0;False;True;False;2,03299999237;True;1,46900010109
YWH1992w;experiment;2017-03-28-14-02-40;9,0;17,0;100;0,0;1,0;2,0;3,0;row;1,0;False;False;False;1,76699995995;True;0,927999973297
YWH1992w;experiment;2017-03-28-14-02-40;9,0;18,0;100;2,0;3,0;0,0;1,0;row;1,0;True;False;False;1,83400011063;False;1,22900009155
YWH1992w;experiment;2017-03-28-14-02-40;9,0;19,0;100;2,0;3,0;0,0;1,0;column;0,0;True;True;True;2,93099999428;True;0,828999996185
YWH1992w;experiment;2017-03-28-14-02-40;9,0;20,0;100;1,0;3,0;0,0;2,0;row;0,0;True;False;False;2,13199996948;False;0,601999998093
YWH1992w;experiment;2017-03-28-14-02-40;9,0;21,0;100;0,0;3,0;2,0;1,0;row;0,0;True;False;False;1,49900007248;False;0,800999879837
YWH1992w;experiment;2017-03-28-14-02-40;9,0;22,0;100;3,0;1,0;2,0;0,0;column;1,0;False;False;True;2,43399977684;False;1,13300013542
YWH1992w;experiment;2017-03-28-14-02-40;9,0;23,0;100;0,0;1,0;2,0;3,0;column;1,0;False;True;True;2,63399982452;False;1,02999997139
YWH1992w;experiment;2017-03-28-14-02-40;9,0;24,0;100;2,0;0,0;1,0;3,0;column;0,0;True;True;True;2,46700000763;True;1,4240000248
YWH1992w;experiment;2017-03-28-14-02-40;9,0;25,0;100;3,0;0,0;1,0;2,0;row;0,0;False;False;False;3,53399991989;True;0,963999986649
YWH1992w;experiment;2017-03-28-14-02-40;9,0;26,0;100;0,0;2,0;3,0;1,0;row;0,0;False;False;False;2,29999995232;True;1,1930000782
YWH1992w;experiment;2017-03-28-14-02-40;9,0;27,0;100;0,0;1,0;3,0;2,0;row;1,0;False;False;False;1,76600003242;True;1,15899991989
YWH1992w;experiment;2017-03-28-14-02-40;9,0;28,0;100;2,0;3,0;1,0;0,0;row;1,0;False;False;True;1,5;False;0,634999990463
YWH1992w;experiment;2017-03-28-14-02-40;9,0;29,0;100;3,0;2,0;0,0;1,0;column;1,0;True;True;True;2,16700005531;True;1,2990000248
YWH1992w;experiment;2017-03-28-14-02-40;9,0;30,0;100;1,0;3,0;2,0;0,0;column;1,0;False;False;True;1,29999995232;False;0,730999946594
YWH1992w;experiment;2017-03-28-14-02-40;9,0;31,0;100;3,0;0,0;1,0;2,0;column;0,0;False;False;True;1,89899992943;False;1,49399995804
YWH1992w;experiment;2017-03-28-14-02-40;9,0;32,0;100;3,0;1,0;2,0;0,0;column;0,0;False;False;False;1,73200011253;True;0,534999847412
YWH1992w;experiment;2017-03-28-14-02-40;9,0;33,0;100;0,0;3,0;2,0;1,0;row;0,0;False;True;True;2,59899997711;False;0,735000133514
YWH1992w;experiment;2017-03-28-14-02-40;9,0;34,0;100;3,0;0,0;1,0;2,0;column;1,0;True;True;True;3,56700015068;True;0,925999879837
YWH1992w;experiment;2017-03-28-14-02-40;9,0;35,0;100;3,0;0,0;2,0;1,0;row;1,0;True;True;True;1,16700005531;True;1,13300013542
YWH1992w;experiment;2017-03-28-14-02-40;9,0;36,0;100;3,0;1,0;2,0;0,0;column;1,0;True;False;True;1,33299994469;True;1,23500013351
YWH1992w;experiment;2017-03-28-14-02-40;9,0;37,0;100;2,0;0,0;3,0;1,0;row;0,0;True;True;False;2,0;False;0,897000074387
YWH1992w;experiment;2017-03-28-14-02-40;9,0;38,0;100;3,0;2,0;1,0;0,0;column;0,0;True;True;True;2,83200001717;True;0,532999992371
YWH1992w;experiment;2017-03-28-14-02-40;9,0;39,0;100;3,0;0,0;1,0;2,0;row;1,0;False;False;True;3,23099994659;False;0,800999879837
YWH1992w;experiment;2017-03-28-14-02-40;9,0;40,0;100;3,0;0,0;1,0;2,0;column;0,0;True;True;False;2,26600003242;False;0,569000005722
YWH1992w;experiment;2017-03-28-14-02-40;9,0;41,0;100;0,0;2,0;1,0;3,0;row;0,0;True;True;True;2,99900007248;True;1,29499983788
YWH1992w;experiment;2017-03-28-14-02-40;9,0;42,0;100;0,0;2,0;1,0;3,0;column;0,0;False;False;True;2,23199987411;False;1,35899996758
YWH1992w;experiment;2017-03-28-14-02-40;9,0;43,0;100;1,0;2,0;0,0;3,0;column;0,0;True;False;True;2,63400006294;True;1,2990000248
YWH1992w;experiment;2017-03-28-14-02-40;9,0;44,0;100;0,0;1,0;2,0;3,0;column;0,0;True;True;True;2,66499996185;True;0,536000013351
YWH1992w;experiment;2017-03-28-14-02-40;9,0;45,0;100;1,0;3,0;0,0;2,0;column;1,0;False;False;True;1,33299994469;False;0,769999980927
YWH1992w;experiment;2017-03-28-14-02-40;9,0;46,0;100;1,0;0,0;2,0;3,0;column;0,0;True;False;False;2,46500015259;False;1,12799978256
YWH1992w;experiment;2017-03-28-14-02-40;9,0;47,0;100;2,0;1,0;0,0;3,0;row;0,0;True;False;True;2,53400015831;True;0,56200003624
YWH1992w;experiment;2017-03-28-14-02-40;9,0;48,0;100;2,0;0,0;1,0;3,0;row;0,0;True;False;False;2,0;False;1,33899998665
YWH1992w;experiment;2017-03-28-14-02-40;10,0;1,0;-100;2,0;3,0;1,0;0,0;row;0,0;True;False;True;1,6819999218;True;0,697000026703
YWH1992w;experiment;2017-03-28-14-02-40;10,0;2,0;-100;3,0;2,0;0,0;1,0;column;1,0;True;True;True;1,41600012779;True;0,835999965668
YWH1992w;experiment;2017-03-28-14-02-40;10,0;3,0;-100;3,0;0,0;1,0;2,0;column;1,0;True;True;True;1,382999897;True;1,00300002098
YWH1992w;experiment;2017-03-28-14-02-40;10,0;4,0;-100;0,0;2,0;1,0;3,0;column;1,0;True;True;True;1,21600008011;True;0,855000019073
YWH1992w;experiment;2017-03-28-14-02-40;10,0;5,0;-100;2,0;1,0;0,0;3,0;column;1,0;True;False;True;1,31700015068;True;0,694000005722
YWH1992w;experiment;2017-03-28-14-02-40;10,0;6,0;-100;1,0;2,0;0,0;3,0;column;1,0;False;False;False;2,31699991226;True;1,29699993134
YWH1992w;experiment;2017-03-28-14-02-40;10,0;7,0;-100;2,0;3,0;0,0;1,0;column;0,0;True;True;True;1,92300009727;True;1,45799994469
YWH1992w;experiment;2017-03-28-14-02-40;10,0;8,0;-100;0,0;1,0;2,0;3,0;row;1,0;False;False;False;1,45000004768;True;0,932999849319
YWH1992w;experiment;2017-03-28-14-02-40;10,0;9,0;-100;0,0;3,0;1,0;2,0;column;1,0;True;False;True;1,35000014305;True;1,12800002098
YWH1992w;experiment;2017-03-28-14-02-40;10,0;10,0;-100;0,0;3,0;2,0;1,0;column;1,0;False;True;False;1,48300004005;True;0,569000005722
YWH1992w;experiment;2017-03-28-14-02-40;10,0;11,0;-100;3,0;0,0;2,0;1,0;row;0,0;False;True;True;1,21399998665;False;0,922999858856
YWH1992w;experiment;2017-03-28-14-02-40;10,0;12,0;-100;2,0;3,0;0,0;1,0;row;1,0;False;False;False;2,08200001717;True;0,537999868393
YWH1992w;experiment;2017-03-28-14-02-40;10,0;13,0;-100;1,0;2,0;3,0;0,0;column;1,0;False;True;False;1,28199982643;True;0,921000003815
YWH1992w;experiment;2017-03-28-14-02-40;10,0;14,0;-100;0,0;2,0;1,0;3,0;column;1,0;False;True;False;2,21700000763;True;1,26700019836
YWH1992w;experiment;2017-03-28-14-02-40;10,0;15,0;-100;1,0;3,0;2,0;0,0;row;0,0;False;False;False;1,51699995995;True;0,969000101089
YWH1992w;experiment;2017-03-28-14-02-40;10,0;16,0;-100;1,0;2,0;3,0;0,0;row;0,0;True;True;True;1,31500005722;True;1,23000001907
YWH1992w;experiment;2017-03-28-14-02-40;10,0;17,0;-100;3,0;2,0;1,0;0,0;row;1,0;False;True;False;0,915999889374;True;0,960000038147
YWH1992w;experiment;2017-03-28-14-02-40;10,0;18,0;-100;3,0;2,0;0,0;1,0;row;0,0;False;False;True;1,58400011063;False;0,555000066757
YWH1992w;experiment;2017-03-28-14-02-40;10,0;19,0;-100;1,0;2,0;0,0;3,0;column;1,0;True;True;True;1,71299982071;True;0,93700003624
YWH1992w;experiment;2017-03-28-14-02-40;10,0;20,0;-100;2,0;1,0;0,0;3,0;row;0,0;True;True;True;1,71600008011;True;0,604999780655
YWH1992w;experiment;2017-03-28-14-02-40;10,0;21,0;-100;2,0;1,0;3,0;0,0;row;0,0;True;False;True;1,0490000248;True;0,930999994278
YWH1992w;experiment;2017-03-28-14-02-40;10,0;22,0;-100;0,0;1,0;3,0;2,0;column;0,0;True;False;True;1,91399979591;True;0,97000002861
YWH1992w;experiment;2017-03-28-14-02-40;10,0;23,0;-100;3,0;2,0;0,0;1,0;row;1,0;False;True;False;1,88300013542;True;1,13700008392
YWH1992w;experiment;2017-03-28-14-02-40;10,0;24,0;-100;3,0;1,0;0,0;2,0;column;0,0;True;False;True;1,08399987221;True;0,753000020981
YWH1992w;experiment;2017-03-28-14-02-40;10,0;25,0;-100;0,0;3,0;1,0;2,0;row;0,0;False;True;False;1,11600017548;True;0,898000001907
YWH1992w;experiment;2017-03-28-14-02-40;10,0;26,0;-100;3,0;1,0;2,0;0,0;column;1,0;True;False;True;1,34899997711;True;0,529000043869
YWH1992w;experiment;2017-03-28-14-02-40;10,0;27,0;-100;2,0;1,0;3,0;0,0;row;1,0;True;True;True;1,41799998283;True;0,796000003815
YWH1992w;experiment;2017-03-28-14-02-40;10,0;28,0;-100;3,0;2,0;1,0;0,0;column;0,0;True;False;True;2,24799990654;True;1,10400009155
YWH1992w;experiment;2017-03-28-14-02-40;10,0;29,0;-100;3,0;2,0;1,0;0,0;column;1,0;True;True;True;1,78200006485;True;0,93799996376
YWH1992w;experiment;2017-03-28-14-02-40;10,0;30,0;-100;0,0;1,0;2,0;3,0;column;1,0;True;False;True;1,64900016785;True;0,999000072479
YWH1992w;experiment;2017-03-28-14-02-40;10,0;31,0;-100;3,0;1,0;0,0;2,0;row;1,0;True;True;True;1,84999990463;True;1,1369998455
YWH1992w;experiment;2017-03-28-14-02-40;10,0;32,0;-100;3,0;0,0;2,0;1,0;column;1,0;False;True;False;1,54999995232;True;0,536000013351
YWH1992w;experiment;2017-03-28-14-02-40;10,0;33,0;-100;1,0;3,0;0,0;2,0;row;0,0;True;True;True;1,78100013733;True;0,595999956131
YWH1992w;experiment;2017-03-28-14-02-40;10,0;34,0;-100;3,0;2,0;0,0;1,0;column;0,0;True;True;True;1,58200001717;True;1,00200009346
YWH1992w;experiment;2017-03-28-14-02-40;10,0;35,0;-100;0,0;2,0;1,0;3,0;column;0,0;False;True;True;1,28299999237;False;0,65700006485
YWH1992w;experiment;2017-03-28-14-02-40;10,0;36,0;-100;0,0;3,0;2,0;1,0;column;1,0;True;False;True;1,38100004196;True;0,65499997139
YWH1992w;experiment;2017-03-28-14-02-40;10,0;37,0;-100;0,0;2,0;3,0;1,0;column;0,0;True;True;True;1,54999995232;True;0,835999965668
YWH1992w;experiment;2017-03-28-14-02-40;10,0;38,0;-100;3,0;0,0;1,0;2,0;row;1,0;True;True;True;1,64700007439;True;0,570000171661
YWH1992w;experiment;2017-03-28-14-02-40;10,0;39,0;-100;1,0;0,0;3,0;2,0;column;0,0;True;True;False;1,45000004768;False;1,39499998093
YWH1992w;experiment;2017-03-28-14-02-40;10,0;40,0;-100;0,0;3,0;1,0;2,0;row;0,0;True;False;True;1,21599984169;True;0,738000154495
YWH1992w;experiment;2017-03-28-14-02-40;10,0;41,0;-100;2,0;1,0;0,0;3,0;row;1,0;False;True;False;2,01000022888;True;1,10299992561
YWH1992w;experiment;2017-03-28-14-02-40;10,0;42,0;-100;2,0;3,0;1,0;0,0;column;0,0;True;True;True;1,75;True;1,26399993896
YWH1992w;experiment;2017-03-28-14-02-40;10,0;43,0;-100;0,0;2,0;3,0;1,0;column;1,0;True;True;True;1,14899992943;True;0,763000011444
YWH1992w;experiment;2017-03-28-14-02-40;10,0;44,0;-100;1,0;3,0;2,0;0,0;row;0,0;True;True;False;1,58100008965;False;0,796000003815
YWH1992w;experiment;2017-03-28-14-02-40;10,0;45,0;-100;3,0;1,0;2,0;0,0;row;0,0;False;False;False;2,01799988747;True;0,52799987793
YWH1992w;experiment;2017-03-28-14-02-40;10,0;46,0;-100;0,0;1,0;3,0;2,0;column;1,0;False;True;False;1,47900009155;True;0,570999860764
YWH1992w;experiment;2017-03-28-14-02-40;10,0;47,0;-100;1,0;0,0;3,0;2,0;row;1,0;False;True;False;0,77999997139;True;0,694999933243
YWH1992w;experiment;2017-03-28-14-02-40;10,0;48,0;-100;2,0;1,0;0,0;3,0;column;1,0;False;True;True;2,41400003433;False;1,29699993134
YWH1992w;experiment;2017-03-28-14-02-40;11,0;1,0;100;2,0;1,0;3,0;0,0;column;0,0;False;True;False;0,901000022888;True;0,626000165939
YWH1992w;experiment;2017-03-28-14-02-40;11,0;2,0;100;0,0;1,0;3,0;2,0;column;1,0;False;False;False;0,700000047684;True;1,05399990082
YWH1992w;experiment;2017-03-28-14-02-40;11,0;3,0;100;2,0;1,0;0,0;3,0;column;1,0;False;True;True;1,93300008774;False;0,796999931335
YWH1992w;experiment;2017-03-28-14-02-40;11,0;4,0;100;1,0;0,0;2,0;3,0;row;1,0;False;False;False;1,26699995995;True;1,2380001545
YWH1992w;experiment;2017-03-28-14-02-40;11,0;5,0;100;1,0;2,0;3,0;0,0;row;0,0;True;True;True;1,53399991989;True;1,43799996376
YWH1992w;experiment;2017-03-28-14-02-40;11,0;6,0;100;0,0;2,0;1,0;3,0;row;1,0;False;True;False;1,867000103;True;1,10299992561
YWH1992w;experiment;2017-03-28-14-02-40;11,0;7,0;100;3,0;0,0;2,0;1,0;column;0,0;False;False;False;0,832999944687;True;1,03600001335
YWH1992w;experiment;2017-03-28-14-02-40;11,0;8,0;100;1,0;2,0;0,0;3,0;column;0,0;False;False;False;1,69900012016;True;1,06299996376
YWH1992w;experiment;2017-03-28-14-02-40;11,0;9,0;100;0,0;3,0;1,0;2,0;column;0,0;False;True;True;2,46599984169;False;1,20599985123
YWH1992w;experiment;2017-03-28-14-02-40;11,0;10,0;100;2,0;0,0;3,0;1,0;column;0,0;False;False;True;1,632999897;False;0,927999973297
YWH1992w;experiment;2017-03-28-14-02-40;11,0;11,0;100;3,0;2,0;0,0;1,0;column;0,0;True;False;False;2,54699993134;False;0,536999940872
YWH1992w;experiment;2017-03-28-14-02-40;11,0;12,0;100;2,0;1,0;3,0;0,0;row;1,0;False;True;True;2,16600012779;False;0,703000068665
YWH1992w;experiment;2017-03-28-14-02-40;11,0;13,0;100;1,0;2,0;0,0;3,0;row;0,0;True;False;True;1,66400003433;True;1,1970000267
YWH1992w;experiment;2017-03-28-14-02-40;11,0;14,0;100;1,0;0,0;3,0;2,0;column;1,0;True;True;True;1,49900007248;True;0,564999818802
YWH1992w;experiment;2017-03-28-14-02-40;11,0;15,0;100;3,0;1,0;0,0;2,0;column;0,0;True;True;True;2,03299999237;True;1,16300010681
YWH1992w;experiment;2017-03-28-14-02-40;11,0;16,0;100;3,0;1,0;0,0;2,0;column;0,0;False;False;False;1,46499991417;True;0,563000202179
YWH1992w;experiment;2017-03-28-14-02-40;11,0;17,0;100;1,0;3,0;0,0;2,0;column;0,0;False;False;False;1,76599979401;True;1,19600009918
YWH1992w;experiment;2017-03-28-14-02-40;11,0;18,0;100;3,0;1,0;2,0;0,0;row;1,0;False;False;False;1,632999897;True;0,861000061035
YWH1992w;experiment;2017-03-28-14-02-40;11,0;19,0;100;1,0;0,0;2,0;3,0;column;0,0;False;True;False;2,23399996758;True;1,17200016975
YWH1992w;experiment;2017-03-28-14-02-40;11,0;20,0;100;1,0;0,0;3,0;2,0;row;1,0;True;False;True;1,66599988937;True;0,665999889374
YWH1992w;experiment;2017-03-28-14-02-40;11,0;21,0;100;0,0;1,0;3,0;2,0;row;0,0;False;True;False;1,62999987602;True;0,663000106812
YWH1992w;experiment;2017-03-28-14-02-40;11,0;22,0;100;2,0;3,0;1,0;0,0;row;0,0;True;False;True;0,900000095367;True;1,16699981689
YWH1992w;experiment;2017-03-28-14-02-40;11,0;23,0;100;3,0;1,0;2,0;0,0;row;0,0;False;False;False;1,93400001526;True;0,830999851227
YWH1992w;experiment;2017-03-28-14-02-40;11,0;24,0;100;1,0;2,0;0,0;3,0;row;1,0;True;False;True;1,0;True;1,3029999733
YWH1992w;experiment;2017-03-28-14-02-40;11,0;25,0;100;1,0;2,0;0,0;3,0;column;1,0;True;True;True;1,36600017548;True;0,669999837875
YWH1992w;experiment;2017-03-28-14-02-40;11,0;26,0;100;0,0;3,0;1,0;2,0;column;1,0;False;True;False;1,63399982452;True;1,30300021172
YWH1992w;experiment;2017-03-28-14-02-40;11,0;27,0;100;3,0;0,0;1,0;2,0;row;0,0;True;True;True;1,33300018311;True;0,967000007629
YWH1992w;experiment;2017-03-28-14-02-40;11,0;28,0;100;1,0;3,0;2,0;0,0;column;1,0;True;False;True;1,59899997711;True;1,20399999619
YWH1992w;experiment;2017-03-28-14-02-40;11,0;29,0;100;1,0;3,0;0,0;2,0;row;1,0;False;False;False;1,49900007248;True;1,15799999237
YWH1992w;experiment;2017-03-28-14-02-40;11,0;30,0;100;3,0;2,0;1,0;0,0;row;1,0;True;False;True;1,46700000763;True;0,90499997139
YWH1992w;experiment;2017-03-28-14-02-40;11,0;31,0;100;1,0;0,0;3,0;2,0;row;0,0;False;False;False;1,60000014305;True;1,06900000572
YWH1992w;experiment;2017-03-28-14-02-40;11,0;32,0;100;3,0;1,0;0,0;2,0;row;1,0;True;False;True;1,26699995995;True;1,47099995613
YWH1992w;experiment;2017-03-28-14-02-40;11,0;33,0;100;1,0;3,0;2,0;0,0;row;1,0;False;True;True;1,73299980164;False;0,9359998703
YWH1992w;experiment;2017-03-28-14-02-40;11,0;34,0;100;0,0;1,0;3,0;2,0;row;0,0;True;False;True;1,09999990463;True;1,20600008965
YWH1992w;experiment;2017-03-28-14-02-40;11,0;35,0;100;3,0;1,0;0,0;2,0;row;0,0;True;False;True;3,06399989128;True;1,03100013733
YWH1992w;experiment;2017-03-28-14-02-40;11,0;36,0;100;3,0;1,0;0,0;2,0;row;1,0;False;True;False;1,26600003242;True;1,00099992752
YWH1992w;experiment;2017-03-28-14-02-40;11,0;37,0;100;1,0;3,0;0,0;2,0;row;1,0;True;True;True;1,10000014305;True;0,963999986649
YWH1992w;experiment;2017-03-28-14-02-40;11,0;38,0;100;3,0;2,0;1,0;0,0;row;0,0;True;True;True;1,03099989891;True;1,12300014496
YWH1992w;experiment;2017-03-28-14-02-40;11,0;39,0;100;0,0;2,0;3,0;1,0;column;0,0;False;False;True;1,23300004005;False;1,43499994278
YWH1992w;experiment;2017-03-28-14-02-40;11,0;40,0;100;1,0;0,0;2,0;3,0;row;1,0;True;True;True;1,19800019264;True;0,661000013351
YWH1992w;experiment;2017-03-28-14-02-40;11,0;41,0;100;1,0;3,0;2,0;0,0;row;0,0;False;False;False;1,73300004005;True;0,861999988556
YWH1992w;experiment;2017-03-28-14-02-40;11,0;42,0;100;1,0;3,0;2,0;0,0;column;0,0;False;True;False;1,56699991226;True;0,590000152588
YWH1992w;experiment;2017-03-28-14-02-40;11,0;43,0;100;0,0;3,0;1,0;2,0;row;1,0;False;True;True;1,367000103;False;1,33899998665
YWH1992w;experiment;2017-03-28-14-02-40;11,0;44,0;100;1,0;0,0;2,0;3,0;row;0,0;False;True;False;1,59899997711;True;0,895000219345
YWH1992w;experiment;2017-03-28-14-02-40;11,0;45,0;100;2,0;0,0;1,0;3,0;row;1,0;False;True;False;1,73300004005;True;1,03199982643
YWH1992w;experiment;2017-03-28-14-02-40;11,0;46,0;100;0,0;1,0;2,0;3,0;column;0,0;False;True;True;1,7990000248;False;0,960999965668
YWH1992w;experiment;2017-03-28-14-02-40;11,0;47,0;100;0,0;3,0;2,0;1,0;row;1,0;True;True;False;2,29999995232;False;0,93700003624
YWH1992w;experiment;2017-03-28-14-02-40;11,0;48,0;100;2,0;1,0;0,0;3,0;column;1,0;True;False;True;1,70000004768;True;1,03100013733
YWH1992w;experiment;2017-03-28-14-02-40;12,0;1,0;1000;1,0;3,0;0,0;2,0;column;1,0;True;True;True;1,632999897;True;1,0490000248
YWH1992w;experiment;2017-03-28-14-02-40;12,0;2,0;1000;0,0;3,0;2,0;1,0;row;1,0;False;True;False;3,23099994659;True;0,94000005722
YWH1992w;experiment;2017-03-28-14-02-40;12,0;3,0;1000;0,0;3,0;1,0;2,0;column;1,0;False;False;False;1,39899992943;True;1,35800004005
YWH1992w;experiment;2017-03-28-14-02-40;12,0;4,0;1000;1,0;3,0;0,0;2,0;row;1,0;True;True;True;1,53299999237;True;1,09700012207
YWH1992w;experiment;2017-03-28-14-02-40;12,0;5,0;1000;1,0;2,0;0,0;3,0;row;1,0;False;True;False;1,46700000763;True;0,634999990463
YWH1992w;experiment;2017-03-28-14-02-40;12,0;6,0;1000;3,0;0,0;1,0;2,0;row;1,0;True;True;False;2,19999980927;False;0,569999933243
YWH1992w;experiment;2017-03-28-14-02-40;12,0;7,0;1000;1,0;2,0;3,0;0,0;row;1,0;False;False;False;2,76600003242;True;1,06399989128
YWH1992w;experiment;2017-03-28-14-02-40;12,0;8,0;1000;3,0;0,0;2,0;1,0;row;0,0;False;True;True;1,53400015831;False;1,49500012398
YWH1992w;experiment;2017-03-28-14-02-40;12,0;9,0;1000;1,0;2,0;3,0;0,0;row;0,0;False;True;False;1,83300018311;True;0,668999910355
YWH1992w;experiment;2017-03-28-14-02-40;12,0;10,0;1000;3,0;0,0;1,0;2,0;row;0,0;True;True;True;1,46700000763;True;0,927999973297
YWH1992w;experiment;2017-03-28-14-02-40;12,0;11,0;1000;3,0;2,0;0,0;1,0;column;0,0;False;True;False;1,53399991989;True;1,09600019455
YWH1992w;experiment;2017-03-28-14-02-40;12,0;12,0;1000;2,0;1,0;0,0;3,0;column;1,0;False;False;False;1,69799995422;True;1,30200004578
YWH1992w;experiment;2017-03-28-14-02-40;12,0;13,0;1000;2,0;1,0;3,0;0,0;column;1,0;False;True;False;3,49900007248;True;1,40100002289
YWH1992w;experiment;2017-03-28-14-02-40;12,0;14,0;1000;1,0;3,0;0,0;2,0;column;0,0;False;True;False;0,967000007629;True;1,36600017548
YWH1992w;experiment;2017-03-28-14-02-40;12,0;15,0;1000;2,0;1,0;0,0;3,0;row;1,0;True;False;True;2,20000004768;True;0,802000045776
YWH1992w;experiment;2017-03-28-14-02-40;12,0;16,0;1000;0,0;3,0;1,0;2,0;row;1,0;True;False;False;2,00699996948;False;1,2349998951
YWH1992w;experiment;2017-03-28-14-02-40;12,0;17,0;1000;0,0;1,0;3,0;2,0;row;1,0;False;False;True;1,93400001526;False;1,42899990082
YWH1992w;experiment;2017-03-28-14-02-40;12,0;18,0;1000;1,0;2,0;3,0;0,0;column;0,0;False;False;True;1,39899992943;False;0,769999980927
YWH1992w;experiment;2017-03-28-14-02-40;12,0;19,0;1000;2,0;3,0;0,0;1,0;row;0,0;True;True;True;2,83299994469;True;1,40499997139
YWH1992w;experiment;2017-03-28-14-02-40;12,0;20,0;1000;0,0;1,0;3,0;2,0;column;0,0;False;False;False;1,632999897;True;1,08899998665
YWH1992w;experiment;2017-03-28-14-02-40;12,0;21,0;1000;3,0;0,0;1,0;2,0;column;1,0;True;False;True;1,03299999237;True;1,46900010109
YWH1992w;experiment;2017-03-28-14-02-40;12,0;22,0;1000;2,0;1,0;3,0;0,0;row;1,0;True;False;True;1,53399991989;True;1,0720000267
YWH1992w;experiment;2017-03-28-14-02-40;12,0;23,0;1000;2,0;3,0;1,0;0,0;column;1,0;True;False;True;2,23299980164;True;1,5039999485
YWH1992w;experiment;2017-03-28-14-02-40;12,0;24,0;1000;2,0;1,0;0,0;3,0;row;0,0;False;False;False;1,23300004005;True;0,528000116348
YWH1992w;experiment;2017-03-28-14-02-40;12,0;25,0;1000;2,0;1,0;0,0;3,0;row;1,0;False;False;False;1,19900012016;True;0,588000059128
YWH1992w;experiment;2017-03-28-14-02-40;12,0;26,0;1000;2,0;1,0;3,0;0,0;column;0,0;False;False;True;1,56699991226;False;1,22499990463
YWH1992w;experiment;2017-03-28-14-02-40;12,0;27,0;1000;1,0;3,0;2,0;0,0;column;1,0;True;False;True;1,16600012779;True;1,26999998093
YWH1992w;experiment;2017-03-28-14-02-40;12,0;28,0;1000;3,0;0,0;2,0;1,0;row;1,0;False;False;False;0,968000173569;True;0,772000074387
YWH1992w;experiment;2017-03-28-14-02-40;12,0;29,0;1000;1,0;0,0;2,0;3,0;row;0,0;True;True;True;1,5;True;0,754999876022
YWH1992w;experiment;2017-03-28-14-02-40;12,0;30,0;1000;0,0;2,0;3,0;1,0;column;1,0;True;True;True;1,33300018311;True;1,1289999485
YWH1992w;experiment;2017-03-28-14-02-40;12,0;31,0;1000;0,0;1,0;2,0;3,0;column;1,0;False;True;False;3,03299999237;True;0,628000020981
YWH1992w;experiment;2017-03-28-14-02-40;12,0;32,0;1000;0,0;1,0;2,0;3,0;row;1,0;False;False;False;0,967000007629;True;0,899999856949
YWH1992w;experiment;2017-03-28-14-02-40;12,0;33,0;1000;2,0;3,0;0,0;1,0;row;0,0;False;True;True;1,93300008774;False;1,06299996376
YWH1992w;experiment;2017-03-28-14-02-40;12,0;34,0;1000;3,0;2,0;1,0;0,0;row;0,0;True;False;True;2,09899997711;True;0,535000085831
YWH1992w;experiment;2017-03-28-14-02-40;12,0;35,0;1000;0,0;3,0;2,0;1,0;column;0,0;True;False;True;2,69800019264;True;1,26900005341
YWH1992w;experiment;2017-03-28-14-02-40;12,0;36,0;1000;2,0;0,0;1,0;3,0;row;1,0;False;False;False;1,36600017548;True;0,964999914169
YWH1992w;experiment;2017-03-28-14-02-40;12,0;37,0;1000;0,0;2,0;3,0;1,0;column;0,0;True;False;True;2,23200011253;True;0,571000099182
YWH1992w;experiment;2017-03-28-14-02-40;12,0;38,0;1000;2,0;3,0;1,0;0,0;row;0,0;False;True;False;1,03299999237;True;0,934000015259
YWH1992w;experiment;2017-03-28-14-02-40;12,0;39,0;1000;3,0;1,0;2,0;0,0;column;0,0;False;False;False;1,73099994659;True;1,09500002861
YWH1992w;experiment;2017-03-28-14-02-40;12,0;40,0;1000;3,0;2,0;1,0;0,0;column;0,0;True;True;True;2,03200006485;True;0,701999902725
YWH1992w;experiment;2017-03-28-14-02-40;12,0;41,0;1000;3,0;0,0;1,0;2,0;row;0,0;False;True;False;0,867000102997;True;0,804999828339
YWH1992w;experiment;2017-03-28-14-02-40;12,0;42,0;1000;2,0;0,0;3,0;1,0;row;0,0;True;False;False;1,79500007629;False;1,43799996376
YWH1992w;experiment;2017-03-28-14-02-40;12,0;43,0;1000;2,0;0,0;3,0;1,0;column;0,0;True;True;True;1,99800014496;True;1,50600004196
YWH1992w;experiment;2017-03-28-14-02-40;12,0;44,0;1000;3,0;2,0;0,0;1,0;column;0,0;True;False;True;1,93300008774;True;1,43400001526
YWH1992w;experiment;2017-03-28-14-02-40;12,0;45,0;1000;0,0;1,0;3,0;2,0;row;1,0;True;False;True;1,70000004768;True;1,16899991035
YWH1992w;experiment;2017-03-28-14-02-40;12,0;46,0;1000;1,0;3,0;0,0;2,0;row;0,0;False;False;False;1,26600003242;True;1,10299992561
YWH1992w;experiment;2017-03-28-14-02-40;12,0;47,0;1000;0,0;1,0;2,0;3,0;row;1,0;True;True;True;1,56599998474;True;0,969000101089
YWH1992w;experiment;2017-03-28-14-02-40;12,0;48,0;1000;2,0;1,0;0,0;3,0;row;0,0;True;True;True;1,96700000763;True;0,729999780655
